leftmoney,Right,rightmoney,Left,leftmoney1,rightmoney1,Left1,Right1,Loop.thisRepN,Loop.thisTrialN,Loop.thisN,Loop.thisIndex,Loop2.thisRepN,Loop2.thisTrialN,Loop2.thisN,Loop2.thisIndex,questions.thisRepN,questions.thisTrialN,questions.thisN,questions.thisIndex,spacebar.keys,spacebar.rt,responses.keys,responses.rt,response1.keys,response1.corr,response1.rt,key_resp_2.keys,key_resp_2.rt,rating.response,rating.rt,rating.history,rating_2.response,rating_2.rt,rating_3.response,rating_3.rt,rating_4.response,rating_4.rt,rating_6.response,rating_6.rt,rating_7.response,rating_7.rt,rating_8.response,rating_8.rt,rating_9.response,rating_9.rt,rating_5.response,rating_5.rt,expName,participant,age,frameRate,sex,session,date,
,,,,,,,,,,,,,,,,,,,,space,2.76800271962,,,,,,,,,,,,,,,,,,,,,,,,,,,newer wtp,wtp22,18,59.9673240799,m,001,2018_Apr_18_1109,
0.03,"Going on a 
dinner date",0.04,Getting a haircut,,,,,0,0,0,5,,,,,,,,,,,1,1.5014854013,,,,,,,,,,,,,,,,,,,,,,,,,newer wtp,wtp22,18,59.9673240799,m,001,2018_Apr_18_1109,
0.05,"Going camping 
with family",0.01,"Learning how to 
perform card tricks",,,,,0,1,1,29,,,,,,,,,,,2,1.90146804694,,,,,,,,,,,,,,,,,,,,,,,,,newer wtp,wtp22,18,59.9673240799,m,001,2018_Apr_18_1109,
0.01,"Watching YouTube
videos",0.02,"Making breakfast 
for your family",,,,,0,2,2,41,,,,,,,,,,,1,1.16783949966,,,,,,,,,,,,,,,,,,,,,,,,,newer wtp,wtp22,18,59.9673240799,m,001,2018_Apr_18_1109,
0.03,"Going to the movies 
by yourself",0.01,"Seeing a play with a 
significant other",,,,,0,3,3,34,,,,,,,,,,,1,3.3190406966,,,,,,,,,,,,,,,,,,,,,,,,,newer wtp,wtp22,18,59.9673240799,m,001,2018_Apr_18_1109,
0.01,"Playing cards with 
friends",0.02,Studying for a test alone,,,,,0,4,4,21,,,,,,,,,,,1,1.30110235699,,,,,,,,,,,,,,,,,,,,,,,,,newer wtp,wtp22,18,59.9673240799,m,001,2018_Apr_18_1109,
0.03,"Teaching yourself a 
different language",0.03,"Joining a club 
at school",,,,,0,5,5,12,,,,,,,,,,,1,1.56741720485,,,,,,,,,,,,,,,,,,,,,,,,,newer wtp,wtp22,18,59.9673240799,m,001,2018_Apr_18_1109,
0.02,Reading at the library,0.05,"Watching the sunset 
with a significant other",,,,,0,6,6,36,,,,,,,,,,,1,0.984102221671,,,,,,,,,,,,,,,,,,,,,,,,,newer wtp,wtp22,18,59.9673240799,m,001,2018_Apr_18_1109,
0.04,"Getting breakfast with 
a significant other",0.02,Listening to a podcast,,,,,0,7,7,27,,,,,,,,,,,2,0.917498628143,,,,,,,,,,,,,,,,,,,,,,,,,newer wtp,wtp22,18,59.9673240799,m,001,2018_Apr_18_1109,
0.01,"Going to a friend’s 
birthday party",0.04,Reading a book,,,,,0,8,8,7,,,,,,,,,,,1,0.967676653061,,,,,,,,,,,,,,,,,,,,,,,,,newer wtp,wtp22,18,59.9673240799,m,001,2018_Apr_18_1109,
0.03,"Watching Netflix at home 
by yourself",0.03,"Meeting new people 
at a party",,,,,0,9,9,32,,,,,,,,,,,1,2.60244575003,,,,,,,,,,,,,,,,,,,,,,,,,newer wtp,wtp22,18,59.9673240799,m,001,2018_Apr_18_1109,
0.04,"Trying out a new 
recipe at home",0.03,"Spending a day at the 
beach with a friend",,,,,0,10,10,16,,,,,,,,,,,2,1.95126694534,,,,,,,,,,,,,,,,,,,,,,,,,newer wtp,wtp22,18,59.9673240799,m,001,2018_Apr_18_1109,
0.02,"Practicing an
 instrument",0.05,"Attending a family member’s 
wedding",,,,,0,11,11,2,,,,,,,,,,,1,0.967779598199,,,,,,,,,,,,,,,,,,,,,,,,,newer wtp,wtp22,18,59.9673240799,m,001,2018_Apr_18_1109,
0.01,"Having a movie marathon 
with a roommate",0.04,"Looking through old 
photo albums",,,,,0,12,12,35,,,,,,,,,,,1,0.484293494839,,,,,,,,,,,,,,,,,,,,,,,,,newer wtp,wtp22,18,59.9673240799,m,001,2018_Apr_18_1109,
0.02,"Going on a double 
date",0.04,Doing your laundry,,,,,0,13,13,33,,,,,,,,,,,1,1.40148297558,,,,,,,,,,,,,,,,,,,,,,,,,newer wtp,wtp22,18,59.9673240799,m,001,2018_Apr_18_1109,
0.04,"Taking an online
class",0.03,"Gaining Twitter
followers ",,,,,0,14,14,49,,,,,,,,,,,2,1.5676719253,,,,,,,,,,,,,,,,,,,,,,,,,newer wtp,wtp22,18,59.9673240799,m,001,2018_Apr_18_1109,
0.05,"Putting together 
a puzzle",0.01,"Going to the movies 
with a friend",,,,,0,15,15,0,,,,,,,,,,,2,1.23409693409,,,,,,,,,,,,,,,,,,,,,,,,,newer wtp,wtp22,18,59.9673240799,m,001,2018_Apr_18_1109,
0.02,Practicing photography,0.04,"Going to a concert 
with a friend",,,,,0,16,16,10,,,,,,,,,,,1,1.15119684301,,,,,,,,,,,,,,,,,,,,,,,,,newer wtp,wtp22,18,59.9673240799,m,001,2018_Apr_18_1109,
0.02,"Having a romantic dinner 
with a significant other",0.02,"Painting your bedroom
a new color",,,,,0,17,17,25,,,,,,,,,,,2,2.60137866158,,,,,,,,,,,,,,,,,,,,,,,,,newer wtp,wtp22,18,59.9673240799,m,001,2018_Apr_18_1109,
0.01,"Going to a nightclub with 
a group of friends",0.05,Writing journal entries,,,,,0,18,18,37,,,,,,,,,,,1,0.901130908169,,,,,,,,,,,,,,,,,,,,,,,,,newer wtp,wtp22,18,59.9673240799,m,001,2018_Apr_18_1109,
0.05,"Participating in 
a debate",0.03,"Going to a museum 
alone",,,,,0,19,19,15,,,,,,,,,,,2,1.25137343677,,,,,,,,,,,,,,,,,,,,,,,,,newer wtp,wtp22,18,59.9673240799,m,001,2018_Apr_18_1109,
0.04,"Watching a football 
game from home",0.01,"Attending a family 
barbeque",,,,,0,20,20,4,,,,,,,,,,,2,1.1843104763,,,,,,,,,,,,,,,,,,,,,,,,,newer wtp,wtp22,18,59.9673240799,m,001,2018_Apr_18_1109,
0.05,"Trying to solve a 
Rubik’s cube",0.03,"Going shopping with
a significant other",,,,,0,21,21,26,,,,,,,,,,,2,0.934588211589,,,,,,,,,,,,,,,,,,,,,,,,,newer wtp,wtp22,18,59.9673240799,m,001,2018_Apr_18_1109,
0.03,"Going to a family 
member’s baby shower",0.02,Watching the news,,,,,0,22,22,31,,,,,,,,,,,2,1.18425138388,,,,,,,,,,,,,,,,,,,,,,,,,newer wtp,wtp22,18,59.9673240799,m,001,2018_Apr_18_1109,
0.02,Exercising from home,0.03,"Attending a Superbowl 
party",,,,,0,23,23,22,,,,,,,,,,,1,1.08406390483,,,,,,,,,,,,,,,,,,,,,,,,,newer wtp,wtp22,18,59.9673240799,m,001,2018_Apr_18_1109,
0.02,"Getting lunch with 
coworkers",0.01,"Going to a farmer's
market by yourself",,,,,0,24,24,43,,,,,,,,,,,2,1.10085024917,,,,,,,,,,,,,,,,,,,,,,,,,newer wtp,wtp22,18,59.9673240799,m,001,2018_Apr_18_1109,
0.05,Taking a nap,0.02,"Getting likes on a 
facebook post",,,,,0,25,25,28,,,,,,,,,,,2,1.10099207144,,,,,,,,,,,,,,,,,,,,,,,,,newer wtp,wtp22,18,59.9673240799,m,001,2018_Apr_18_1109,
0.04,"Snapchatting with
friends",0.05,"Playing a videogame 
at home",,,,,0,26,26,19,,,,,,,,,,,1,3.36852360517,,,,,,,,,,,,,,,,,,,,,,,,,newer wtp,wtp22,18,59.9673240799,m,001,2018_Apr_18_1109,
0.02,"Going to the movies
with a significant other",0.05,"Driving to school
by yourself",,,,,0,27,27,46,,,,,,,,,,,1,1.2345348415,,,,,,,,,,,,,,,,,,,,,,,,,newer wtp,wtp22,18,59.9673240799,m,001,2018_Apr_18_1109,
0.01,"Buying coffee on 
the way to work",0.05,"Getting retweets 
on a picture",,,,,0,28,28,6,,,,,,,,,,,1,0.567229663953,,,,,,,,,,,,,,,,,,,,,,,,,newer wtp,wtp22,18,59.9673240799,m,001,2018_Apr_18_1109,
0.05,"Going for a walk 
in the park",0.01,Playing a team sport,,,,,0,29,29,8,,,,,,,,,,,2,0.884286714718,,,,,,,,,,,,,,,,,,,,,,,,,newer wtp,wtp22,18,59.9673240799,m,001,2018_Apr_18_1109,
0.01,"Going to a carnival 
with friends",0.01,"Rearranging furniture 
in your house",,,,,0,30,30,23,,,,,,,,,,,2,2.21781754214,,,,,,,,,,,,,,,,,,,,,,,,,newer wtp,wtp22,18,59.9673240799,m,001,2018_Apr_18_1109,
0.01,"Studying abroad 
with friends",0.05,Playing with a pet,,,,,0,31,31,45,,,,,,,,,,,1,0.984378401656,,,,,,,,,,,,,,,,,,,,,,,,,newer wtp,wtp22,18,59.9673240799,m,001,2018_Apr_18_1109,
0.05,"Taking a road trip 
by yourself",0.03,"Traveling abroad with 
a significant other",,,,,0,32,32,30,,,,,,,,,,,2,0.950840234756,,,,,,,,,,,,,,,,,,,,,,,,,newer wtp,wtp22,18,59.9673240799,m,001,2018_Apr_18_1109,
0.04,"Babysitting for a 
family member",0.01,"Going on a hike 
by yourself",,,,,0,33,33,39,,,,,,,,,,,2,0.900815540459,,,,,,,,,,,,,,,,,,,,,,,,,newer wtp,wtp22,18,59.9673240799,m,001,2018_Apr_18_1109,
0.01,"Getting breakfast
by yourself",0.04,"Gaining Instagram
followers",,,,,0,34,34,44,,,,,,,,,,,1,0.952109792735,,,,,,,,,,,,,,,,,,,,,,,,,newer wtp,wtp22,18,59.9673240799,m,001,2018_Apr_18_1109,
0.03,Shopping online,0.01,"Catching up with friends 
from high school",,,,,0,35,35,18,,,,,,,,,,,2,1.01802915568,,,,,,,,,,,,,,,,,,,,,,,,,newer wtp,wtp22,18,59.9673240799,m,001,2018_Apr_18_1109,
0.03,"Going to a sporting
event with friends",0.05,Putting gas in a car,,,,,0,36,36,3,,,,,,,,,,,1,1.28435488883,,,,,,,,,,,,,,,,,,,,,,,,,newer wtp,wtp22,18,59.9673240799,m,001,2018_Apr_18_1109,
0.05,"Having dinner with 
family",0.02,"Going grocery shopping 
alone",,,,,0,37,37,1,,,,,,,,,,,2,1.18463517493,,,,,,,,,,,,,,,,,,,,,,,,,newer wtp,wtp22,18,59.9673240799,m,001,2018_Apr_18_1109,
0.05,"Going on Spring Break 
vacation with friends",0.01,"Going for a bicycle
ride alone",,,,,0,38,38,13,,,,,,,,,,,2,0.884407388046,,,,,,,,,,,,,,,,,,,,,,,,,newer wtp,wtp22,18,59.9673240799,m,001,2018_Apr_18_1109,
0.05,"Planting flowers 
in a garden",0.02,"Taking a road trip 
with family",,,,,0,39,39,14,,,,,,,,,,,2,1.35201468458,,,,,,,,,,,,,,,,,,,,,,,,,newer wtp,wtp22,18,59.9673240799,m,001,2018_Apr_18_1109,
0.02,"Adding new friends
on facebook",0.01,Running a marathon,,,,,0,40,40,9,,,,,,,,,,,2,1.16749645118,,,,,,,,,,,,,,,,,,,,,,,,,newer wtp,wtp22,18,59.9673240799,m,001,2018_Apr_18_1109,
0.03,"Cleaning up around 
the house",0.05,"Playing a tennis match
 with a friend",,,,,0,41,41,38,,,,,,,,,,,1,1.26747337403,,,,,,,,,,,,,,,,,,,,,,,,,newer wtp,wtp22,18,59.9673240799,m,001,2018_Apr_18_1109,
0.01,"Buying clothes 
for yourself",0.03,"Going to a party
with roommates",,,,,0,42,42,48,,,,,,,,,,,1,0.650530340616,,,,,,,,,,,,,,,,,,,,,,,,,newer wtp,wtp22,18,59.9673240799,m,001,2018_Apr_18_1109,
0.04,"Reading news 
articles",0.04,"Watching television
with family",,,,,0,43,43,47,,,,,,,,,,,2,2.68770674616,,,,,,,,,,,,,,,,,,,,,,,,,newer wtp,wtp22,18,59.9673240799,m,001,2018_Apr_18_1109,
0.04,"Going to a work outing
with colleagues",0.01,"Going on vacation 
by yourself",,,,,0,44,44,11,,,,,,,,,,,2,1.05120530305,,,,,,,,,,,,,,,,,,,,,,,,,newer wtp,wtp22,18,59.9673240799,m,001,2018_Apr_18_1109,
0.02,"Having a picnic 
with family",0.02,"Watching a new 
episode of a television 
show",,,,,0,45,45,17,,,,,,,,,,,2,3.36843621032,,,,,,,,,,,,,,,,,,,,,,,,,newer wtp,wtp22,18,59.9673240799,m,001,2018_Apr_18_1109,
0.02,"Shopping for clothes
with friends",0.03,"Going to the beach 
alone",,,,,0,46,46,40,,,,,,,,,,,1,1.18465725658,,,,,,,,,,,,,,,,,,,,,,,,,newer wtp,wtp22,18,59.9673240799,m,001,2018_Apr_18_1109,
0.03,"Getting a slice of pizza 
by yourself",0.02,Joining a study group,,,,,0,47,47,24,,,,,,,,,,,2,1.30154555151,,,,,,,,,,,,,,,,,,,,,,,,,newer wtp,wtp22,18,59.9673240799,m,001,2018_Apr_18_1109,
0.01,"Giving a friend a ride
to school",0.05,"Listening to music
by yourself",,,,,0,48,48,42,,,,,,,,,,,1,1.0009563677,,,,,,,,,,,,,,,,,,,,,,,,,newer wtp,wtp22,18,59.9673240799,m,001,2018_Apr_18_1109,
0.01,Drawing a picture,0.03,"Getting likes on an 
Instagram picture",,,,,0,49,49,20,,,,,,,,,,,1,1.0511210179,,,,,,,,,,,,,,,,,,,,,,,,,newer wtp,wtp22,18,59.9673240799,m,001,2018_Apr_18_1109,
,,,,0.03,0.05,"Going to a parade 
with family","Making a friend’s 
favorite dinner",,,,,0,0,0,3,,,,,,,,,1,0,2.48468101816,,,,,,,,,,,,,,,,,,,,,,newer wtp,wtp22,18,59.9673240799,m,001,2018_Apr_18_1109,
,,,,0.04,0.03,"Going to a flea market
with family","Playing volleyball
with friends",,,,,0,1,1,16,,,,,,,,,2,0,1.81745608198,,,,,,,,,,,,,,,,,,,,,,newer wtp,wtp22,18,59.9673240799,m,001,2018_Apr_18_1109,
,,,,0.02,0.05,"Taking an art class 
with friends","Walking around Central 
Park with family",,,,,0,2,2,13,,,,,,,,,1,0,0.968014102429,,,,,,,,,,,,,,,,,,,,,,newer wtp,wtp22,18,59.9673240799,m,001,2018_Apr_18_1109,
,,,,0.01,0.04,"Talking over the phone
with a friend","Talking over the phone
with a significant other",,,,,0,3,3,7,,,,,,,,,1,0,1.88446305972,,,,,,,,,,,,,,,,,,,,,,newer wtp,wtp22,18,59.9673240799,m,001,2018_Apr_18_1109,
,,,,0.03,0.01,"Going to a karaoke
bar with friends","Going on a weekend
getaway with family",,,,,0,4,4,18,,,,,,,,,2,0,1.45074008824,,,,,,,,,,,,,,,,,,,,,,newer wtp,wtp22,18,59.9673240799,m,001,2018_Apr_18_1109,
,,,,0.02,0.05,"Going to an amusement 
park with a friend","Baking a cake for a 
family member’s birthday",,,,,0,5,5,2,,,,,,,,,1,0,1.75096663088,,,,,,,,,,,,,,,,,,,,,,newer wtp,wtp22,18,59.9673240799,m,001,2018_Apr_18_1109,
,,,,0.01,0.01,"Going to a comedy show 
with a significant other","Watching friends'
Snapchat stories",,,,,0,6,6,23,,,,,,,,,1,0,1.2344076368,,,,,,,,,,,,,,,,,,,,,,newer wtp,wtp22,18,59.9673240799,m,001,2018_Apr_18_1109,
,,,,0.05,0.01,Taking classes with a friend,"Taking a family member
 on a shopping trip",,,,,0,7,7,0,,,,,,,,,2,0,1.68460625038,,,,,,,,,,,,,,,,,,,,,,newer wtp,wtp22,18,59.9673240799,m,001,2018_Apr_18_1109,
,,,,0.04,0.01,"Getting retweeted by 
a celebrity","Planning a surprise 
party for a family member",,,,,0,8,8,4,,,,,,,,,2,0,1.28468518564,,,,,,,,,,,,,,,,,,,,,,newer wtp,wtp22,18,59.9673240799,m,001,2018_Apr_18_1109,
,,,,0.01,0.03,"Getting likes on a 
Facebook status","Going on a first date 
to the movies",,,,,0,9,9,20,,,,,,,,,1,0,1.40073716501,,,,,,,,,,,,,,,,,,,,,,newer wtp,wtp22,18,59.9673240799,m,001,2018_Apr_18_1109,
,,,,0.02,0.02,"Working on a group
project with classmates","Getting likes on an
Instagram picture",,,,,0,10,10,17,,,,,,,,,2,0,2.60184984747,,,,,,,,,,,,,,,,,,,,,,newer wtp,wtp22,18,59.9673240799,m,001,2018_Apr_18_1109,
,,,,0.05,0.01,Posting Instagram stories,"Making cookies to 
give to a friend",,,,,0,11,11,8,,,,,,,,,2,0,1.21765332669,,,,,,,,,,,,,,,,,,,,,,newer wtp,wtp22,18,59.9673240799,m,001,2018_Apr_18_1109,
,,,,0.05,0.02,"Eating dinner at a 
restaurant with family","Eating dinner at a
restaurant with friends ",,,,,0,12,12,14,,,,,,,,,2,0,1.26756201312,,,,,,,,,,,,,,,,,,,,,,newer wtp,wtp22,18,59.9673240799,m,001,2018_Apr_18_1109,
,,,,0.02,0.04,"Going to a bar 
with friends","Getting a slice of 
pizza with a friend",,,,,0,13,13,10,,,,,,,,,1,0,2.55135427834,,,,,,,,,,,,,,,,,,,,,,newer wtp,wtp22,18,59.9673240799,m,001,2018_Apr_18_1109,
,,,,0.05,0.03,"Going to a street fair
with friends",Having a Tweet go viral,,,,,0,14,14,15,,,,,,,,,2,0,1.0678181015,,,,,,,,,,,,,,,,,,,,,,newer wtp,wtp22,18,59.9673240799,m,001,2018_Apr_18_1109,
,,,,0.03,0.03,"Celebrating holidays 
with family","Talking to a friend 
over Skype",,,,,0,15,15,12,,,,,,,,,2,0,2.70199720562,,,,,,,,,,,,,,,,,,,,,,newer wtp,wtp22,18,59.9673240799,m,001,2018_Apr_18_1109,
,,,,0.01,0.05,"Getting drinks 
with co-workers","Playing icebreakers
with classmates",,,,,0,16,16,19,,,,,,,,,1,0,1.1845145016,,,,,,,,,,,,,,,,,,,,,,newer wtp,wtp22,18,59.9673240799,m,001,2018_Apr_18_1109,
,,,,0.02,0.01,Going on a blind date,"Going to a coffee 
shop with friends",,,,,0,17,17,9,,,,,,,,,2,0,1.15131969377,,,,,,,,,,,,,,,,,,,,,,newer wtp,wtp22,18,59.9673240799,m,001,2018_Apr_18_1109,
,,,,0.04,0.02,"Baking cookies for
a neighbor","Getting tagged in 
Instagram pictures",,,,,0,18,18,11,,,,,,,,,2,0,1.08501996053,,,,,,,,,,,,,,,,,,,,,,newer wtp,wtp22,18,59.9673240799,m,001,2018_Apr_18_1109,
,,,,0.03,0.02,"Getting ice cream
with friends","Going sight-seeing
with family",,,,,0,19,19,24,,,,,,,,,2,0,2.63480424182,,,,,,,,,,,,,,,,,,,,,,newer wtp,wtp22,18,59.9673240799,m,001,2018_Apr_18_1109,
,,,,0.01,0.05,"Playing videogames 
with friends","Taking your friend 
on a cruise",,,,,0,20,20,6,,,,,,,,,1,0,1.68398888782,,,,,,,,,,,,,,,,,,,,,,newer wtp,wtp22,18,59.9673240799,m,001,2018_Apr_18_1109,
,,,,0.05,0.02,"Sleeping over at 
a friend's house","Taking your friend 
to the spa",,,,,0,21,21,1,,,,,,,,,2,0,0.967890630011,,,,,,,,,,,,,,,,,,,,,,newer wtp,wtp22,18,59.9673240799,m,001,2018_Apr_18_1109,
,,,,0.02,0.03,"Getting verified on 
Instagram","Playing ping-pong
with friends",,,,,0,22,22,22,,,,,,,,,1,0,1.08458671859,,,,,,,,,,,,,,,,,,,,,,newer wtp,wtp22,18,59.9673240799,m,001,2018_Apr_18_1109,
,,,,0.01,0.02,"Learning to drive 
with a family member","Going dancing with
a significant other",,,,,0,23,23,21,,,,,,,,,1,0,0.767955756281,,,,,,,,,,,,,,,,,,,,,,newer wtp,wtp22,18,59.9673240799,m,001,2018_Apr_18_1109,
,,,,0.03,0.04,"Going to a music
festival with friends","Buying flowers for 
a significant other",,,,,0,24,24,5,,,,,,,,,1,0,1.90103418287,,,,,,,,,,,,,,,,,,,,,,newer wtp,wtp22,18,59.9673240799,m,001,2018_Apr_18_1109,
,,,,,,,,,,,,,,,,,,,,,,,,,,,space,9.01970645273,,,,,,,,,,,,,,,,,,,,newer wtp,wtp22,18,59.9673240799,m,001,2018_Apr_18_1109,
,,,,,,,,,,,,,,,,0,0,0,0,,,,,,,,,,6,33.243,"[(None, 0.0), (7, 23.923), (6, 30.709), (6, 33.243)]",4,7.986,3,6.77,6,4.268,4,4.001,6,5.403,3,4.887,2,5.368,5,3.252,newer wtp,wtp22,18,59.9673240799,m,001,2018_Apr_18_1109,
