selectBlock,alltrials.thisRepN,alltrials.thisTrialN,alltrials.thisN,alltrials.thisIndex,Reward.thisRepN,Reward.thisTrialN,Reward.thisN,Reward.thisIndex,Loss.thisRepN,Loss.thisTrialN,Loss.thisN,Loss.thisIndex,Welcome.started,Welcome.stopped,response1.keys,response1.rt,response1.started,response1.stopped,firstTrialITI.started,firstTrialITI.stopped,polygon.started,polygon.stopped,text.started,text.stopped,response2.keys,response2.rt,response2.started,response2.stopped,ISI.started,ISI.stopped,polygon2_2.started,polygon2_2.stopped,feedback1_2.started,feedback1_2.stopped,arrow1_2.started,arrow1_2.stopped,ITI_2.started,ITI_2.stopped,rectangle.started,rectangle.stopped,text1.started,text1.stopped,response3.keys,response3.started,response3.stopped,ISI2.started,ISI2.stopped,rectangle2_2.started,rectangle2_2.stopped,feedback2_2.started,feedback2_2.stopped,arrow2_2.started,arrow2_2.stopped,ITI2_2.started,ITI2_2.stopped,response3.rt,Finished.started,Finished.stopped,key_resp_2.keys,key_resp_2.rt,key_resp_2.started,key_resp_2.stopped,participant,session,date,expName,psychopyVersion,frameRate,
,,,,,,,,,,,,,7.379735902586617,None,space,34.31865330659821,7.379735902586617,None,,,,,,,,,,,,,,,,,,,,,,,,,,,,,,,,,,,,,,,,,,,,,004,001,2020_Jan_07_1246,Experiment1,3.1.2,60.95520571479405,
1,0,0,0,16,0,0,0,0,,,,,,,,,,,41.7220924760818,None,47.77375808373381,49.7578028851849,47.77375808373381,49.7578028851849,1,1.8524977661168123,47.77375808373381,49.7578028851849,49.774442944303246,None,51.791817004758286,53.75901118823322,51.791817004758286,52.75860531037506,52.77529762043605,53.75901118823322,53.7756627549993,None,,,,,,,,,,,,,,,,,,,,,,,,,004,001,2020_Jan_07_1246,Experiment1,3.1.2,60.95520571479405,
1,0,0,0,16,,,,,,,,,,,,,,,,,,,,,,,,,,,,,,,,,,,,,,,,,,,,,,,,,,,,,,,,,,,004,001,2020_Jan_07_1246,Experiment1,3.1.2,60.95520571479405,
2,0,1,1,1,,,,,0,0,0,0,,,,,,,,,,,,,,,,,,,,,,,,,,,55.76182029843358,57.76020145226494,55.76182029843358,57.76020145226494,None,55.76182029843358,57.76020145226494,57.77686203853955,None,59.794033004556695,61.76141037734806,59.794033004556695,60.76109873779751,60.777800378383745,61.76141037734806,61.77807967211265,None,,,,,,,,004,001,2020_Jan_07_1246,Experiment1,3.1.2,60.95520571479405,
2,0,1,1,1,,,,,,,,,,,,,,,,,,,,,,,,,,,,,,,,,,,,,,,,,,,,,,,,,,,,,,,,,,,004,001,2020_Jan_07_1246,Experiment1,3.1.2,60.95520571479405,
2,0,2,2,17,,,,,0,0,0,0,,,,,,,,,,,,,,,,,,,,,,,,,,,63.77866500707705,65.76255896503335,63.77866500707705,65.76255896503335,2,63.77866500707705,65.76255896503335,65.77927335733739,None,67.79650372770038,69.76381329867354,67.79650372770038,68.76350290319306,68.78012461227763,69.76381329867354,69.78048663666596,None,0.6953701621614528,,,,,,,004,001,2020_Jan_07_1246,Experiment1,3.1.2,60.95520571479405,
2,0,2,2,17,,,,,,,,,,,,,,,,,,,,,,,,,,,,,,,,,,,,,,,,,,,,,,,,,,,,,,,,,,,004,001,2020_Jan_07_1246,Experiment1,3.1.2,60.95520571479405,
2,0,3,3,9,,,,,0,0,0,0,,,,,,,,,,,,,,,,,,,,,,,,,,,71.78106823942016,73.76502595596685,71.78106823942016,73.76502595596685,1,71.78106823942016,73.76502595596685,73.78168560918857,None,75.78236238330237,77.76623083782215,75.78236238330237,76.76591297792129,76.78260342187696,77.76623083782215,77.78289049104387,None,0.49286354759624373,,,,,,,004,001,2020_Jan_07_1246,Experiment1,3.1.2,60.95520571479405,
2,0,3,3,9,,,,,,,,,,,,,,,,,,,,,,,,,,,,,,,,,,,,,,,,,,,,,,,,,,,,,,,,,,,004,001,2020_Jan_07_1246,Experiment1,3.1.2,60.95520571479405,
1,0,4,4,12,0,0,0,0,,,,,,,,,,,,,79.76820362192348,81.76742638915175,79.76820362192348,81.76742638915175,None,,79.76820362192348,81.76742638915175,81.78407919998835,None,83.80138576964237,85.76862505065674,83.80138576964237,84.76832585180682,84.78498923723873,85.76862505065674,85.7852927903341,None,,,,,,,,,,,,,,,,,,,,,,,,,004,001,2020_Jan_07_1246,Experiment1,3.1.2,60.95520571479405,
1,0,4,4,12,,,,,,,,,,,,,,,,,,,,,,,,,,,,,,,,,,,,,,,,,,,,,,,,,,,,,,,,,,,004,001,2020_Jan_07_1246,Experiment1,3.1.2,60.95520571479405,
1,0,5,5,23,0,0,0,0,,,,,,,,,,,,,87.78585946424755,89.76981469265411,87.78585946424755,89.76981469265411,2,0.48788944447005633,87.78585946424755,89.76981469265411,89.78648243233101,None,91.78704288589415,93.7710096219489,91.78704288589415,92.77062302717695,92.78735763562008,93.7710096219489,93.78770410913239,None,,,,,,,,,,,,,,,,,,,,,,,,,004,001,2020_Jan_07_1246,Experiment1,3.1.2,60.95520571479405,
1,0,5,5,23,,,,,,,,,,,,,,,,,,,,,,,,,,,,,,,,,,,,,,,,,,,,,,,,,,,,,,,,,,,004,001,2020_Jan_07_1246,Experiment1,3.1.2,60.95520571479405,
1,0,6,6,20,0,0,0,0,,,,,,,,,,,,,95.77316030806878,97.77220424022607,95.77316030806878,97.77220424022607,1,1.7485037724868562,95.77316030806878,97.77220424022607,97.78888193246348,None,99.7894398978865,101.77343929078052,99.7894398978865,100.77316279620891,100.78983395707883,101.77343929078052,101.79010640842262,None,,,,,,,,,,,,,,,,,,,,,,,,,004,001,2020_Jan_07_1246,Experiment1,3.1.2,60.95520571479405,
1,0,6,6,20,,,,,,,,,,,,,,,,,,,,,,,,,,,,,,,,,,,,,,,,,,,,,,,,,,,,,,,,,,,004,001,2020_Jan_07_1246,Experiment1,3.1.2,60.95520571479405,
1,0,7,7,24,0,0,0,0,,,,,,,,,,,,,103.79068521201907,105.77459409881567,103.79068521201907,105.77459409881567,2,1.7148224416555422,103.79068521201907,105.77459409881567,105.79128671989429,None,107.79187640910368,109.7758285273353,107.79187640910368,108.77559153198808,108.79219800121473,109.7758285273353,109.79249346785446,None,,,,,,,,,,,,,,,,,,,,,,,,,004,001,2020_Jan_07_1246,Experiment1,3.1.2,60.95520571479405,
1,0,7,7,24,,,,,,,,,,,,,,,,,,,,,,,,,,,,,,,,,,,,,,,,,,,,,,,,,,,,,,,,,,,004,001,2020_Jan_07_1246,Experiment1,3.1.2,60.95520571479405,
1,0,8,8,2,0,0,0,0,,,,,,,,,,,,,111.79307693671399,113.77702532273497,111.79307693671399,113.77702532273497,None,,111.79307693671399,113.77702532273497,113.7936949285172,None,115.8109616879292,117.7782183859249,115.8109616879292,116.77791980910979,116.7945931471022,117.7782183859249,117.79490634174044,None,,,,,,,,,,,,,,,,,,,,,,,,,004,001,2020_Jan_07_1246,Experiment1,3.1.2,60.95520571479405,
1,0,8,8,2,,,,,,,,,,,,,,,,,,,,,,,,,,,,,,,,,,,,,,,,,,,,,,,,,,,,,,,,,,,004,001,2020_Jan_07_1246,Experiment1,3.1.2,60.95520571479405,
2,0,9,9,14,,,,,0,0,0,0,,,,,,,,,,,,,,,,,,,,,,,,,,,119.79548234617914,121.77945654665427,119.79548234617914,121.77945654665427,1,119.79548234617914,121.77945654665427,121.79610282612293,None,123.79668038564932,125.780618197075,123.79668038564932,124.78032988383802,124.79698984807737,125.780618197075,125.79729246811985,None,1.5898708437562163,,,,,,,004,001,2020_Jan_07_1246,Experiment1,3.1.2,60.95520571479405,
2,0,9,9,14,,,,,,,,,,,,,,,,,,,,,,,,,,,,,,,,,,,,,,,,,,,,,,,,,,,,,,,,,,,004,001,2020_Jan_07_1246,Experiment1,3.1.2,60.95520571479405,
2,0,10,10,11,,,,,0,0,0,0,,,,,,,,,,,,,,,,,,,,,,,,,,,127.78234434428623,129.78183023233305,127.78234434428623,129.78183023233305,2,127.78234434428623,129.78183023233305,129.79850574744796,None,131.79904349673234,133.78303822436374,131.79904349673234,132.78272409667306,132.79941143045335,133.78303822436374,133.7997131174434,None,1.8588894870790682,,,,,,,004,001,2020_Jan_07_1246,Experiment1,3.1.2,60.95520571479405,
2,0,10,10,11,,,,,,,,,,,,,,,,,,,,,,,,,,,,,,,,,,,,,,,,,,,,,,,,,,,,,,,,,,,004,001,2020_Jan_07_1246,Experiment1,3.1.2,60.95520571479405,
2,0,11,11,18,,,,,0,0,0,0,,,,,,,,,,,,,,,,,,,,,,,,,,,135.78471305368475,137.78423906299122,135.78471305368475,137.78423906299122,2,135.78471305368475,137.78423906299122,137.8009136450537,None,139.80152914871678,141.7854392795839,139.80152914871678,140.78517149350273,140.80181839500665,141.7854392795839,141.8021007989105,None,0.22438016541764227,,,,,,,004,001,2020_Jan_07_1246,Experiment1,3.1.2,60.95520571479405,
2,0,11,11,18,,,,,,,,,,,,,,,,,,,,,,,,,,,,,,,,,,,,,,,,,,,,,,,,,,,,,,,,,,,004,001,2020_Jan_07_1246,Experiment1,3.1.2,60.95520571479405,
2,0,12,12,10,,,,,0,0,0,0,,,,,,,,,,,,,,,,,,,,,,,,,,,143.78703448842134,145.78663078768614,143.78703448842134,145.78663078768614,None,143.78703448842134,145.78663078768614,145.80331781044924,None,147.82055502319736,149.78784562210194,147.82055502319736,148.7875346045862,148.8042038993508,149.78784562210194,149.8044940786931,None,,,,,,,,004,001,2020_Jan_07_1246,Experiment1,3.1.2,60.95520571479405,
2,0,12,12,10,,,,,,,,,,,,,,,,,,,,,,,,,,,,,,,,,,,,,,,,,,,,,,,,,,,,,,,,,,,004,001,2020_Jan_07_1246,Experiment1,3.1.2,60.95520571479405,
1,0,13,13,0,0,0,0,0,,,,,,,,,,,,,151.7894370987292,153.78904272851923,151.7894370987292,153.78904272851923,1,0.5074437377088543,151.7894370987292,153.78904272851923,153.80570486988108,None,155.80614433763049,157.79022552813103,155.80614433763049,156.78977984003131,156.8064649966891,157.79022552813103,157.806922192437,None,,,,,,,,,,,,,,,,,,,,,,,,,004,001,2020_Jan_07_1246,Experiment1,3.1.2,60.95520571479405,
1,0,13,13,0,,,,,,,,,,,,,,,,,,,,,,,,,,,,,,,,,,,,,,,,,,,,,,,,,,,,,,,,,,,004,001,2020_Jan_07_1246,Experiment1,3.1.2,60.95520571479405,
1,0,14,14,19,0,0,0,0,,,,,,,,,,,,,159.79276405309292,161.79140272942732,159.79276405309292,161.79140272942732,2,1.936019964836305,159.79276405309292,161.79140272942732,161.80810281492631,None,163.80868566175013,165.7926007688975,163.80868566175013,164.79229534969727,164.80901534031682,165.7926007688975,165.80931982646462,None,,,,,,,,,,,,,,,,,,,,,,,,,004,001,2020_Jan_07_1246,Experiment1,3.1.2,60.95520571479405,
1,0,14,14,19,,,,,,,,,,,,,,,,,,,,,,,,,,,,,,,,,,,,,,,,,,,,,,,,,,,,,,,,,,,004,001,2020_Jan_07_1246,Experiment1,3.1.2,60.95520571479405,
1,0,15,15,4,0,0,0,0,,,,,,,,,,,,,167.7951128573709,169.79382275671605,167.7951128573709,169.79382275671605,1,1.6376272722550311,167.7951128573709,169.79382275671605,169.8105141337246,None,171.81108049662043,173.7950257724665,171.81108049662043,172.7946519294128,172.81143505658792,173.7950257724665,173.81173021221048,None,,,,,,,,,,,,,,,,,,,,,,,,,004,001,2020_Jan_07_1246,Experiment1,3.1.2,60.95520571479405,
1,0,15,15,4,,,,,,,,,,,,,,,,,,,,,,,,,,,,,,,,,,,,,,,,,,,,,,,,,,,,,,,,,,,004,001,2020_Jan_07_1246,Experiment1,3.1.2,60.95520571479405,
1,0,16,16,6,0,0,0,0,,,,,,,,,,,,,175.79747192522655,177.79623314246192,175.79747192522655,177.79623314246192,2,1.7711956104230921,175.79747192522655,177.79623314246192,177.81292887371546,None,179.81348932727815,181.79743491414183,179.81348932727815,180.79707195670153,180.81372383448524,181.79743491414183,181.81408026055806,None,,,,,,,,,,,,,,,,,,,,,,,,,004,001,2020_Jan_07_1246,Experiment1,3.1.2,60.95520571479405,
1,0,16,16,6,,,,,,,,,,,,,,,,,,,,,,,,,,,,,,,,,,,,,,,,,,,,,,,,,,,,,,,,,,,004,001,2020_Jan_07_1246,Experiment1,3.1.2,60.95520571479405,
2,0,17,17,21,,,,,0,0,0,0,,,,,,,,,,,,,,,,,,,,,,,,,,,183.7998294379945,185.798645083295,183.7998294379945,185.798645083295,1,183.7998294379945,185.798645083295,185.815329617918,None,187.81585026123912,189.79984281174757,187.81585026123912,188.79952837303927,188.81625458400913,189.79984281174757,189.81653107858074,None,1.520727606816763,,,,,,,004,001,2020_Jan_07_1246,Experiment1,3.1.2,60.95520571479405,
2,0,17,17,21,,,,,,,,,,,,,,,,,,,,,,,,,,,,,,,,,,,,,,,,,,,,,,,,,,,,,,,,,,,004,001,2020_Jan_07_1246,Experiment1,3.1.2,60.95520571479405,
2,0,18,18,3,,,,,0,0,0,0,,,,,,,,,,,,,,,,,,,,,,,,,,,191.8021483845905,193.80104365037505,191.8021483845905,193.80104365037505,2,191.8021483845905,193.80104365037505,193.8177316061906,None,195.8182873944911,197.8022528864758,195.8182873944911,196.80194529015262,196.81863044681086,197.8022528864758,197.81892653548584,None,1.4063123492928753,,,,,,,004,001,2020_Jan_07_1246,Experiment1,3.1.2,60.95520571479405,
2,0,18,18,3,,,,,,,,,,,,,,,,,,,,,,,,,,,,,,,,,,,,,,,,,,,,,,,,,,,,,,,,,,,004,001,2020_Jan_07_1246,Experiment1,3.1.2,60.95520571479405,
2,0,19,19,8,,,,,0,0,0,0,,,,,,,,,,,,,,,,,,,,,,,,,,,199.80348171667993,201.80345683527867,199.80348171667993,201.80345683527867,1,199.80348171667993,201.80345683527867,201.82013110632352,None,203.82068782767647,205.80464087896007,203.82068782767647,204.8043146215864,204.82104300967922,205.80464087896007,205.82131452797012,None,1.2848727611794857,,,,,,,004,001,2020_Jan_07_1246,Experiment1,3.1.2,60.95520571479405,
2,0,19,19,8,,,,,,,,,,,,,,,,,,,,,,,,,,,,,,,,,,,,,,,,,,,,,,,,,,,,,,,,,,,004,001,2020_Jan_07_1246,Experiment1,3.1.2,60.95520571479405,
1,0,20,20,7,0,0,0,0,,,,,,,,,,,,,207.80588308291772,209.80584265064044,207.80588308291772,209.80584265064044,2,1.0023251669467754,207.80588308291772,209.80584265064044,209.82250448098466,None,211.82309945749194,213.80705002063587,211.82309945749194,212.80672314122694,212.82337844020367,213.80705002063587,213.82369661112216,None,,,,,,,,,,,,,,,,,,,,,,,,,004,001,2020_Jan_07_1246,Experiment1,3.1.2,60.95520571479405,
1,0,20,20,7,,,,,,,,,,,,,,,,,,,,,,,,,,,,,,,,,,,,,,,,,,,,,,,,,,,,,,,,,,,004,001,2020_Jan_07_1246,Experiment1,3.1.2,60.95520571479405,
1,0,21,21,13,0,0,0,0,,,,,,,,,,,,,215.80921470254452,217.80825179231624,215.80921470254452,217.80825179231624,1,0.822973184381226,215.80921470254452,217.80825179231624,217.82491175655514,None,219.82550548899235,221.80945356399616,219.82550548899235,220.8091105116764,220.82578820391427,221.80945356399616,221.82611104009538,None,,,,,,,,,,,,,,,,,,,,,,,,,004,001,2020_Jan_07_1246,Experiment1,3.1.2,60.95520571479405,
1,0,21,21,13,,,,,,,,,,,,,,,,,,,,,,,,,,,,,,,,,,,,,,,,,,,,,,,,,,,,,,,,,,,004,001,2020_Jan_07_1246,Experiment1,3.1.2,60.95520571479405,
1,0,22,22,22,0,0,0,0,,,,,,,,,,,,,223.82670166235766,225.8106512924487,223.82670166235766,225.8106512924487,2,1.79735311653576,223.82670166235766,225.8106512924487,225.827314366863,None,227.82786922211108,229.8118499539537,227.82786922211108,228.81149632703864,228.8282383999017,229.8118499539537,229.82851054022785,None,,,,,,,,,,,,,,,,,,,,,,,,,004,001,2020_Jan_07_1246,Experiment1,3.1.2,60.95520571479405,
1,0,22,22,22,,,,,,,,,,,,,,,,,,,,,,,,,,,,,,,,,,,,,,,,,,,,,,,,,,,,,,,,,,,004,001,2020_Jan_07_1246,Experiment1,3.1.2,60.95520571479405,
1,0,23,23,5,0,0,0,0,,,,,,,,,,,,,231.82911546929563,233.8130532807213,231.82911546929563,233.8130532807213,2,1.5148409782996168,231.82911546929563,233.8130532807213,233.82970920173284,None,235.8303079104503,237.81426407190975,235.8303079104503,236.81389676022354,236.83064069919237,237.81426407190975,237.83092123699134,None,,,,,,,,,,,,,,,,,,,,,,,,,004,001,2020_Jan_07_1246,Experiment1,3.1.2,60.95520571479405,
1,0,23,23,5,,,,,,,,,,,,,,,,,,,,,,,,,,,,,,,,,,,,,,,,,,,,,,,,,,,,,,,,,,,004,001,2020_Jan_07_1246,Experiment1,3.1.2,60.95520571479405,
2,0,24,24,15,,,,,0,0,0,0,,,,,,,,,,,,,,,,,,,,,,,,,,,239.8315078160258,241.81547268597524,239.8315078160258,241.81547268597524,1,239.8315078160258,241.81547268597524,241.8321332722494,None,243.83273042587916,245.81666419407748,243.83273042587916,244.81635815284199,244.83305170697304,245.81666419407748,245.83334095326245,None,1.3283617183469687,,,,,,,004,001,2020_Jan_07_1246,Experiment1,3.1.2,60.95520571479405,
2,0,24,24,15,,,,,,,,,,,,,,,,,,,,,,,,,,,,,,,,,,,,,,,,,,,,,,,,,,,,,,,,,,,004,001,2020_Jan_07_1246,Experiment1,3.1.2,60.95520571479405,
,,,,,,,,,,,,,,,,,,,,,,,,,,,,,,,,,,,,,,,,,,,,,,,,,,,,,,,,,247.8172184272903,None,space,12.366384231660504,247.8172184272903,None,004,001,2020_Jan_07_1246,Experiment1,3.1.2,60.95520571479405,
