choices,trials.thisRepN,trials.thisTrialN,trials.thisN,trials.thisIndex,text_3.started,text_3.stopped,key_resp.keys,key_resp.rt,key_resp.started,key_resp.stopped,Instructions.started,Instructions.stopped,key_resp_3.keys,key_resp_3.rt,key_resp_3.started,key_resp_3.stopped,text_4.started,text_4.stopped,key_resp_5.keys,key_resp_5.rt,key_resp_5.started,key_resp_5.stopped,text_5.started,text_5.stopped,key_resp_6.keys,key_resp_6.rt,key_resp_6.started,key_resp_6.stopped,text.started,text.stopped,rating.response,rating.rt,rating.started,rating.stopped,key_resp_2.keys,key_resp_2.started,key_resp_2.stopped,text_2.started,text_2.stopped,key_resp_4.keys,key_resp_4.rt,key_resp_4.started,key_resp_4.stopped,participant,session,date,expName,psychopyVersion,frameRate,
,,,,,7.933360454060676,None,space,2.255169966406811,7.933360454060676,None,,,,,,,,,,,,,,,,,,,,,,,,,,,,,,,,,,012,001,2020_Jan_11_1158,choiceText,3.1.2,60.0741572528969,
,,,,,,,,,,,10.21718508621234,None,space,0.5232987886174669,10.21718508621234,None,,,,,,,,,,,,,,,,,,,,,,,,,,,,012,001,2020_Jan_11_1158,choiceText,3.1.2,60.0741572528969,
,,,,,,,,,,,,,,,,,10.767479262129655,10.767479262129655,space,10.86895836812846,10.767479262129655,None,,,,,,,,,,,,,,,,,,,,,,012,001,2020_Jan_11_1158,choiceText,3.1.2,60.0741572528969,
,,,,,,,,,,,,,,,,,,,,,,,21.654113999738,21.654113999738,space,30.501772955347406,21.654113999738,None,,,,,,,,,,,,,,,,012,001,2020_Jan_11_1158,choiceText,3.1.2,60.0741572528969,
"Going to a music
festival with friends",0,0,0,30,,,,,,,,,,,,,,,,,,,,,,,,,53.23000771634452,None,$.04,8.892,0.9728948235178905,None,None,53.23000771634452,None,,,,,,,012,001,2020_Jan_11_1158,choiceText,3.1.2,60.0741572528969,
"Going on vacation 
by yourself",0,1,1,94,,,,,,,,,,,,,,,,,,,,,,,,,62.18249294845509,None,$0,5.89,0.0321498805851661,None,None,62.18249294845509,None,,,,,,,012,001,2020_Jan_11_1158,choiceText,3.1.2,60.0741572528969,
"Looking through old 
photo albums",0,2,2,106,,,,,,,,,,,,,,,,,,,,,,,,,68.13454275604408,None,$.02,3.41,0.026652023962014937,None,None,68.13454275604408,None,,,,,,,012,001,2020_Jan_11_1158,choiceText,3.1.2,60.0741572528969,
"Going to the beach 
alone",0,3,3,80,,,,,,,,,,,,,,,,,,,,,,,,,71.58551690955574,None,$0,3.538,0.02285014585186218,None,None,71.58551690955574,None,,,,,,,012,001,2020_Jan_11_1158,choiceText,3.1.2,60.0741572528969,
"Going to a farmer's
market by yourself",0,4,4,83,,,,,,,,,,,,,,,,,,,,,,,,,75.16970701839,None,$.03,4.897,0.024142734646375175,None,None,75.16970701839,None,,,,,,,012,001,2020_Jan_11_1158,choiceText,3.1.2,60.0741572528969,
Viedochatting your friend over Snapchat,0,5,5,7,,,,,,,,,,,,,,,,,,,,,,,,,80.12114194435071,None,$.01,6.702,0.02037973372534907,None,None,80.12114194435071,None,,,,,,,012,001,2020_Jan_11_1158,choiceText,3.1.2,60.0741572528969,
"Watching a new 
episode of a television 
show",0,6,6,97,,,,,,,,,,,,,,,,,,,,,,,,,86.87320251314577,None,$.02,5.349,0.021012343352140306,None,None,86.87320251314577,None,,,,,,,012,001,2020_Jan_11_1158,choiceText,3.1.2,60.0741572528969,
"Going on a weekend
getaway with family",0,7,7,18,,,,,,,,,,,,,,,,,,,,,,,,,92.27477153430846,None,$.02,5.292,0.016744561003179115,None,None,92.27477153430846,None,,,,,,,012,001,2020_Jan_11_1158,choiceText,3.1.2,60.0741572528969,
"Getting likes on an
Instagram picture",0,8,8,17,,,,,,,,,,,,,,,,,,,,,,,,,97.62665177514782,None,$0,2.736,0.034955258574882464,None,None,97.62665177514782,None,,,,,,,012,001,2020_Jan_11_1158,choiceText,3.1.2,60.0741572528969,
"Going on a hike 
by yourself",0,9,9,108,,,,,,,,,,,,,,,,,,,,,,,,,100.41074777008225,None,$.01,5.206,0.016646901503463596,None,None,100.41074777008225,None,,,,,,,012,001,2020_Jan_11_1158,choiceText,3.1.2,60.0741572528969,
"Playing ping-pong
with friends",0,10,10,22,,,,,,,,,,,,,,,,,,,,,,,,,105.66228629597708,None,$.02,2.387,0.01888809372076139,None,None,105.66228629597708,None,,,,,,,012,001,2020_Jan_11_1158,choiceText,3.1.2,60.0741572528969,
"Practicing an
 instrument",0,11,11,61,,,,,,,,,,,,,,,,,,,,,,,,,108.09629475503152,None,$0,4.696,0.013944781328063982,None,None,108.09629475503152,None,,,,,,,012,001,2020_Jan_11_1158,choiceText,3.1.2,60.0741572528969,
"Sleeping over at 
a friend's house",0,12,12,26,,,,,,,,,,,,,,,,,,,,,,,,,112.84762847589263,None,$.01,5.027,0.03027693310559698,None,None,112.84762847589263,None,,,,,,,012,001,2020_Jan_11_1158,choiceText,3.1.2,60.0741572528969,
Snapchat your friends to keep your "Snapstreaks",0,13,13,51,,,,,,,,,,,,,,,,,,,,,,,,,117.93267932570143,None,$0,6.3,0.03143609538619785,None,None,117.93267932570143,None,,,,,,,012,001,2020_Jan_11_1158,choiceText,3.1.2,60.0741572528969,
Make comments on your friend's Instagram post,0,14,14,50,,,,,,,,,,,,,,,,,,,,,,,,,124.30106868728535,None,$0,5.065,0.03713175914936073,None,None,124.30106868728535,None,,,,,,,012,001,2020_Jan_11_1158,choiceText,3.1.2,60.0741572528969,
Getting a lot of comments on your Instagram post,0,15,15,41,,,,,,,,,,,,,,,,,,,,,,,,,129.4359744007702,None,$0,2.678,0.02627973599555844,None,None,129.4359744007702,None,,,,,,,012,001,2020_Jan_11_1158,choiceText,3.1.2,60.0741572528969,
Running a marathon,0,16,16,93,,,,,,,,,,,,,,,,,,,,,,,,,132.15377825633004,None,$0,3.969,0.023421174010309187,None,None,132.15377825633004,None,,,,,,,012,001,2020_Jan_11_1158,choiceText,3.1.2,60.0741572528969,
"Playing a videogame 
at home",0,17,17,98,,,,,,,,,,,,,,,,,,,,,,,,,136.188212249549,None,$.03,2.435,0.03506504775850772,None,None,136.188212249549,None,,,,,,,012,001,2020_Jan_11_1158,choiceText,3.1.2,60.0741572528969,
Watching the news,0,18,18,104,,,,,,,,,,,,,,,,,,,,,,,,,138.67230230404857,None,$.02,2.409,0.01843929544565981,None,None,138.67230230404857,None,,,,,,,012,001,2020_Jan_11_1158,choiceText,3.1.2,60.0741572528969,
Viewing videos and photos on Instagram's Explore page,0,19,19,39,,,,,,,,,,,,,,,,,,,,,,,,,141.14141624313834,None,$0,4.497,0.037588643879644223,None,None,141.14141624313834,None,,,,,,,012,001,2020_Jan_11_1158,choiceText,3.1.2,60.0741572528969,
"Going to a karaoke
bar with friends",0,20,20,43,,,,,,,,,,,,,,,,,,,,,,,,,145.69336938648348,None,$0,4.667,0.02541790646046138,None,None,145.69336938648348,None,,,,,,,012,001,2020_Jan_11_1158,choiceText,3.1.2,60.0741572528969,
"Getting a slice of pizza 
by yourself",0,21,21,72,,,,,,,,,,,,,,,,,,,,,,,,,150.42562435988702,None,$.01,3.221,0.029719589718297357,None,None,150.42562435988702,None,,,,,,,012,001,2020_Jan_11_1158,choiceText,3.1.2,60.0741572528969,
"Going for a walk 
in the park",0,22,22,64,,,,,,,,,,,,,,,,,,,,,,,,,153.69323160572412,None,$.01,3.117,0.01501405954695656,None,None,153.69323160572412,None,,,,,,,012,001,2020_Jan_11_1158,choiceText,3.1.2,60.0741572528969,
"Taking your friend 
on a cruise",0,23,23,6,,,,,,,,,,,,,,,,,,,,,,,,,156.87744168188328,None,$.02,4.237,0.03973715287702362,None,None,156.87744168188328,None,,,,,,,012,001,2020_Jan_11_1158,choiceText,3.1.2,60.0741572528969,
Having a Tweet go viral,0,24,24,15,,,,,,,,,,,,,,,,,,,,,,,,,161.16424990506175,None,$0,3.31,0.03110112952253985,None,None,161.16424990506175,None,,,,,,,012,001,2020_Jan_11_1158,choiceText,3.1.2,60.0741572528969,
"Getting tagged in 
Instagram pictures",0,25,25,11,,,,,,,,,,,,,,,,,,,,,,,,,164.52979936571091,None,$0,2.325,0.01574246256859624,None,None,164.52979936571091,None,,,,,,,012,001,2020_Jan_11_1158,choiceText,3.1.2,60.0741572528969,
Having hundreds of friends on Facebook,0,26,26,59,,,,,,,,,,,,,,,,,,,,,,,,,166.91386214397426,None,$0,1.907,0.028454681482344313,None,None,166.91386214397426,None,,,,,,,012,001,2020_Jan_11_1158,choiceText,3.1.2,60.0741572528969,
"Rearranging furniture 
in your house",0,27,27,100,,,,,,,,,,,,,,,,,,,,,,,,,168.8644374175219,None,$.01,2.922,0.016883274815427285,None,None,168.8644374175219,None,,,,,,,012,001,2020_Jan_11_1158,choiceText,3.1.2,60.0741572528969,
"Planting flowers 
in a garden",0,28,28,67,,,,,,,,,,,,,,,,,,,,,,,,,171.81567484736024,None,$0,2.248,0.013237216480320058,None,None,171.81567484736024,None,,,,,,,012,001,2020_Jan_11_1158,choiceText,3.1.2,60.0741572528969,
Looking at your friend's Snapchat stories,0,29,29,4,,,,,,,,,,,,,,,,,,,,,,,,,174.13269748912444,None,$0,3.002,0.03680021447780746,None,None,174.13269748912444,None,,,,,,,012,001,2020_Jan_11_1158,choiceText,3.1.2,60.0741572528969,
Practicing photography,0,30,30,65,,,,,,,,,,,,,,,,,,,,,,,,,177.18390310187078,None,$0,2.815,0.027163958792698395,None,None,177.18390310187078,None,,,,,,,012,001,2020_Jan_11_1158,choiceText,3.1.2,60.0741572528969,
Taking classes with a friend,0,31,31,25,,,,,,,,,,,,,,,,,,,,,,,,,180.06795452799497,None,$.01,14.88,0.025513077820050967,None,None,180.06795452799497,None,,,,,,,012,001,2020_Jan_11_1158,choiceText,3.1.2,60.0741572528969,
"Painting your bedroom
a new color",0,32,32,101,,,,,,,,,,,,,,,,,,,,,,,,,194.98893524086589,None,$0,2.677,0.016217697332194803,None,None,194.98893524086589,None,,,,,,,012,001,2020_Jan_11_1158,choiceText,3.1.2,60.0741572528969,
Studying for a test alone,0,33,33,99,,,,,,,,,,,,,,,,,,,,,,,,,197.70649836886832,None,$0,3.239,0.019056665214066015,None,None,197.70649836886832,None,,,,,,,012,001,2020_Jan_11_1158,choiceText,3.1.2,60.0741572528969,
"Trying out a new 
recipe at home",0,34,34,68,,,,,,,,,,,,,,,,,,,,,,,,,200.9910231014478,None,$0,5.442,0.018618441534727026,None,None,200.9910231014478,None,,,,,,,012,001,2020_Jan_11_1158,choiceText,3.1.2,60.0741572528969,
"Getting retweeted by 
a celebrity",0,35,35,29,,,,,,,,,,,,,,,,,,,,,,,,,206.5090868432435,None,$0,2.712,0.043546806425183604,None,None,206.5090868432435,None,,,,,,,012,001,2020_Jan_11_1158,choiceText,3.1.2,60.0741572528969,
Listening to a podcast,0,36,36,102,,,,,,,,,,,,,,,,,,,,,,,,,209.24511539216337,None,$.01,4.195,0.01500255189876043,None,None,209.24511539216337,None,,,,,,,012,001,2020_Jan_11_1158,choiceText,3.1.2,60.0741572528969,
"Buying clothes 
for yourself",0,37,37,85,,,,,,,,,,,,,,,,,,,,,,,,,213.49472405437427,None,$.02,4.126,0.016081160642897885,None,None,213.49472405437427,None,,,,,,,012,001,2020_Jan_11_1158,choiceText,3.1.2,60.0741572528969,
Make a post on Twitter,0,38,38,53,,,,,,,,,,,,,,,,,,,,,,,,,217.66265733987348,None,$0,1.852,0.020509739046701725,None,None,217.66265733987348,None,,,,,,,012,001,2020_Jan_11_1158,choiceText,3.1.2,60.0741572528969,
"Playing volleyball
with friends",0,39,39,16,,,,,,,,,,,,,,,,,,,,,,,,,219.56299053293787,None,$0,3.023,0.016162336214620154,None,None,219.56299053293787,None,,,,,,,012,001,2020_Jan_11_1158,choiceText,3.1.2,60.0741572528969,
"Getting likes on a 
Facebook status",0,40,40,45,,,,,,,,,,,,,,,,,,,,,,,,,222.63056872973903,None,$0,2.139,0.016209921894187573,None,None,222.63056872973903,None,,,,,,,012,001,2020_Jan_11_1158,choiceText,3.1.2,60.0741572528969,
Direct messaging friends on Instagrams,0,41,41,28,,,,,,,,,,,,,,,,,,,,,,,,,224.81459281742355,None,$.01,4.141,0.019288995298666123,None,None,224.81459281742355,None,,,,,,,012,001,2020_Jan_11_1158,choiceText,3.1.2,60.0741572528969,
Going on a blind date,0,42,42,34,,,,,,,,,,,,,,,,,,,,,,,,,228.99918046884613,None,$0,2.758,0.020697904643839138,None,None,228.99918046884613,None,,,,,,,012,001,2020_Jan_11_1158,choiceText,3.1.2,60.0741572528969,
"Working on a group
project with classmates",0,43,43,42,,,,,,,,,,,,,,,,,,,,,,,,,231.81689434703867,None,$0,12.291,0.03387136253377321,None,None,231.81689434703867,None,,,,,,,012,001,2020_Jan_11_1158,choiceText,3.1.2,60.0741572528969,
"Taking a family member
 on a shopping trip",0,44,44,0,,,,,,,,,,,,,,,,,,,,,,,,,244.17052343936848,None,$0,2.938,0.02963748109414155,None,None,244.17052343936848,None,,,,,,,012,001,2020_Jan_11_1158,choiceText,3.1.2,60.0741572528969,
"Taking an online
class",0,45,45,86,,,,,,,,,,,,,,,,,,,,,,,,,247.17152025050564,None,$.01,2.675,0.028921829790760967,None,None,247.17152025050564,None,,,,,,,012,001,2020_Jan_11_1158,choiceText,3.1.2,60.0741572528969,
Doing your laundry,0,46,46,105,,,,,,,,,,,,,,,,,,,,,,,,,249.88875960927498,None,$.01,3.435,0.021547293478761276,None,None,249.88875960927498,None,,,,,,,012,001,2020_Jan_11_1158,choiceText,3.1.2,60.0741572528969,
"Going dancing with
a significant other",0,47,47,21,,,,,,,,,,,,,,,,,,,,,,,,,253.37361414482757,None,$.05,4.279,0.023406245169553586,None,None,253.37361414482757,None,,,,,,,012,001,2020_Jan_11_1158,choiceText,3.1.2,60.0741572528969,
"Watching a football 
game from home",0,48,48,62,,,,,,,,,,,,,,,,,,,,,,,,,257.70774399401853,None,$.01,4.011,0.016171355722235603,None,None,257.70774399401853,None,,,,,,,012,001,2020_Jan_11_1158,choiceText,3.1.2,60.0741572528969,
Getting 1 million subscribers on Youtube,0,49,49,23,,,,,,,,,,,,,,,,,,,,,,,,,261.775660888894,None,$.05,4.684,0.033718963950832403,None,None,261.775660888894,None,,,,,,,012,001,2020_Jan_11_1158,choiceText,3.1.2,60.0741572528969,
"Learning to drive 
with a family member",0,50,50,46,,,,,,,,,,,,,,,,,,,,,,,,,266.510698847027,None,$0,8.939,0.017194603348343662,None,None,266.510698847027,None,,,,,,,012,001,2020_Jan_11_1158,choiceText,3.1.2,60.0741572528969,
"Putting together 
a puzzle",0,51,51,60,,,,,,,,,,,,,,,,,,,,,,,,,275.48026391702297,None,$0,3.947,0.013338297173049796,None,None,275.48026391702297,None,,,,,,,012,001,2020_Jan_11_1158,choiceText,3.1.2,60.0741572528969,
"Listening to music
by yourself",0,52,52,82,,,,,,,,,,,,,,,,,,,,,,,,,279.48103368537386,None,$.02,1.559,0.014150052888453502,None,None,279.48103368537386,None,,,,,,,012,001,2020_Jan_11_1158,choiceText,3.1.2,60.0741572528969,
Reading at the library,0,53,53,78,,,,,,,,,,,,,,,,,,,,,,,,,281.0666423450966,None,$0,3.345,0.013854275231096835,None,None,281.0666423450966,None,,,,,,,012,001,2020_Jan_11_1158,choiceText,3.1.2,60.0741572528969,
Looking at your Facebook feed,0,54,54,55,,,,,,,,,,,,,,,,,,,,,,,,,284.4658075118814,None,$0,2.877,0.014416594899103075,None,None,284.4658075118814,None,,,,,,,012,001,2020_Jan_11_1158,choiceText,3.1.2,60.0741572528969,
"Going to the movies 
by yourself",0,55,55,77,,,,,,,,,,,,,,,,,,,,,,,,,287.3836991987878,None,$0,1.913,0.021253381926726433,None,None,287.3836991987878,None,,,,,,,012,001,2020_Jan_11_1158,choiceText,3.1.2,60.0741572528969,
"Getting drinks 
with co-workers",0,56,56,44,,,,,,,,,,,,,,,,,,,,,,,,,289.3505808096593,None,$.02,3.14,0.015864070417137555,None,None,289.3505808096593,None,,,,,,,012,001,2020_Jan_11_1158,choiceText,3.1.2,60.0741572528969,
"Going on a first date 
to the movies",0,57,57,20,,,,,,,,,,,,,,,,,,,,,,,,,292.5348994309311,None,$0,2.224,0.016721234689612174,None,None,292.5348994309311,None,,,,,,,012,001,2020_Jan_11_1158,choiceText,3.1.2,60.0741572528969,
Direct messaging your crush on Snapchat,0,58,58,54,,,,,,,,,,,,,,,,,,,,,,,,,294.8021309676096,None,$.01,46.869,0.02013154174801457,None,None,294.8021309676096,None,,,,,,,012,001,2020_Jan_11_1158,choiceText,3.1.2,60.0741572528969,
"Buying coffee on 
the way to work",0,59,59,63,,,,,,,,,,,,,,,,,,,,,,,,,341.73312084616646,None,$.02,2.626,0.0274718661330553,None,None,341.73312084616646,None,,,,,,,012,001,2020_Jan_11_1158,choiceText,3.1.2,60.0741572528969,
"Going to a museum 
alone",0,60,60,96,,,,,,,,,,,,,,,,,,,,,,,,,344.40059584735627,None,$.01,5.338,0.025071743965327187,None,None,344.40059584735627,None,,,,,,,012,001,2020_Jan_11_1158,choiceText,3.1.2,60.0741572528969,
Watching videos on Youtube,0,61,61,14,,,,,,,,,,,,,,,,,,,,,,,,,349.78540755579706,None,$.01,2.899,0.02244706715191569,None,None,349.78540755579706,None,,,,,,,012,001,2020_Jan_11_1158,choiceText,3.1.2,60.0741572528969,
Putting gas in a car,0,62,62,90,,,,,,,,,,,,,,,,,,,,,,,,,352.7362521705136,None,$.01,3.57,0.019310766524540668,None,None,352.7362521705136,None,,,,,,,012,001,2020_Jan_11_1158,choiceText,3.1.2,60.0741572528969,
Posting Instagram stories,0,63,63,33,,,,,,,,,,,,,,,,,,,,,,,,,356.35426014686846,None,$0,2.826,0.01636947387987675,None,None,356.35426014686846,None,,,,,,,012,001,2020_Jan_11_1158,choiceText,3.1.2,60.0741572528969,
"Learning how to 
perform card tricks",0,64,64,103,,,,,,,,,,,,,,,,,,,,,,,,,359.23823599573643,None,$0,3.169,0.033690039322209486,None,None,359.23823599573643,None,,,,,,,012,001,2020_Jan_11_1158,choiceText,3.1.2,60.0741572528969,
"Watching Netflix at home 
by yourself",0,65,65,76,,,,,,,,,,,,,,,,,,,,,,,,,362.4726144412275,None,$.01,1.941,0.03306178394086601,None,None,362.4726144412275,None,,,,,,,012,001,2020_Jan_11_1158,choiceText,3.1.2,60.0741572528969,
"Walking around Central 
Park with family",0,66,66,13,,,,,,,,,,,,,,,,,,,,,,,,,364.4732203033477,None,$.01,2.925,0.02964183533913456,None,None,364.4732203033477,None,,,,,,,012,001,2020_Jan_11_1158,choiceText,3.1.2,60.0741572528969,
"Playing icebreakers
with classmates",0,67,67,19,,,,,,,,,,,,,,,,,,,,,,,,,367.4587477252953,None,$.01,4.015,0.03598286044689303,None,None,367.4587477252953,None,,,,,,,012,001,2020_Jan_11_1158,choiceText,3.1.2,60.0741572528969,
Drawing a picture,0,68,68,70,,,,,,,,,,,,,,,,,,,,,,,,,371.5252498014929,None,$0,3.839,0.02354495898134701,None,None,371.5252498014929,None,,,,,,,012,001,2020_Jan_11_1158,choiceText,3.1.2,60.0741572528969,
"Getting verified on 
Instagram",0,69,69,47,,,,,,,,,,,,,,,,,,,,,,,,,375.4267144762789,None,$0,1.621,0.03326705550080078,None,None,375.4267144762789,None,,,,,,,012,001,2020_Jan_11_1158,choiceText,3.1.2,60.0741572528969,
"Driving to school
by yourself",0,70,70,88,,,,,,,,,,,,,,,,,,,,,,,,,377.07928614015736,None,$0,4.414,0.013973394939512218,None,None,377.07928614015736,None,,,,,,,012,001,2020_Jan_11_1158,choiceText,3.1.2,60.0741572528969,
"Watching YouTube
videos",0,71,71,81,,,,,,,,,,,,,,,,,,,,,,,,,381.54490859661746,None,$.01,2.172,0.022933498546080955,None,None,381.54490859661746,None,,,,,,,012,001,2020_Jan_11_1158,choiceText,3.1.2,60.0741572528969,
Having a celebrity comment on your Facebook post,0,72,72,57,,,,,,,,,,,,,,,,,,,,,,,,,383.7957286720516,None,$0,2.029,0.0371777897416905,None,None,383.7957286720516,None,,,,,,,012,001,2020_Jan_11_1158,choiceText,3.1.2,60.0741572528969,
Sharing Youtube videos with your partner,0,73,73,9,,,,,,,,,,,,,,,,,,,,,,,,,385.8795727738998,None,$.01,2.871,0.03248795662420889,None,None,385.8795727738998,None,,,,,,,012,001,2020_Jan_11_1158,choiceText,3.1.2,60.0741572528969,
Shopping online,0,74,74,69,,,,,,,,,,,,,,,,,,,,,,,,,388.7971926314972,None,$.01,1.93,0.018030307412573165,None,None,388.7971926314972,None,,,,,,,012,001,2020_Jan_11_1158,choiceText,3.1.2,60.0741572528969,
Going to a coffee shop with friends,0,75,75,58,,,,,,,,,,,,,,,,,,,,,,,,,390.8146708828199,None,$.01,2.196,0.03879197064725304,None,None,390.8146708828199,None,,,,,,,012,001,2020_Jan_11_1158,choiceText,3.1.2,60.0741572528969,
"Going grocery shopping 
alone",0,76,76,89,,,,,,,,,,,,,,,,,,,,,,,,,393.0504812529525,None,$.01,2.169,0.024529640435957845,None,None,393.0504812529525,None,,,,,,,012,001,2020_Jan_11_1158,choiceText,3.1.2,60.0741572528969,
"Celebrating holidays 
with family",0,77,77,37,,,,,,,,,,,,,,,,,,,,,,,,,395.29907257687,None,$.02,11.141,0.033306554725641035,None,None,395.29907257687,None,,,,,,,012,001,2020_Jan_11_1158,choiceText,3.1.2,60.0741572528969,
"Getting breakfast
by yourself",0,78,78,84,,,,,,,,,,,,,,,,,,,,,,,,,406.5024627921971,None,$0,1.992,0.03386825235838842,None,None,406.5024627921971,None,,,,,,,012,001,2020_Jan_11_1158,choiceText,3.1.2,60.0741572528969,
Going out to dinner with friends,0,79,79,3,,,,,,,,,,,,,,,,,,,,,,,,,408.55304730296484,None,$.02,1.838,0.033369069245964056,None,None,408.55304730296484,None,,,,,,,012,001,2020_Jan_11_1158,choiceText,3.1.2,60.0741572528969,
"Talking to a friend 
over Skype",0,80,80,12,,,,,,,,,,,,,,,,,,,,,,,,,410.4368922134586,None,$0,3.616,0.024862740194748767,None,None,410.4368922134586,None,,,,,,,012,001,2020_Jan_11_1158,choiceText,3.1.2,60.0741572528969,
Reading a book,0,81,81,92,,,,,,,,,,,,,,,,,,,,,,,,,414.1048085485031,None,$0,1.581,0.015914144236830907,None,None,414.1048085485031,None,,,,,,,012,001,2020_Jan_11_1158,choiceText,3.1.2,60.0741572528969,
Calling a family member over Skype,0,82,82,32,,,,,,,,,,,,,,,,,,,,,,,,,415.7385788925476,None,$0,2.032,0.025778375760637573,None,None,415.7385788925476,None,,,,,,,012,001,2020_Jan_11_1158,choiceText,3.1.2,60.0741572528969,
"Getting a slice of 
pizza with a friend",0,83,83,10,,,,,,,,,,,,,,,,,,,,,,,,,417.83922260549934,None,$.01,2.074,0.04001053727324688,None,None,417.83922260549934,None,,,,,,,012,001,2020_Jan_11_1158,choiceText,3.1.2,60.0741572528969,
Snapchatting your friends,0,84,84,2,,,,,,,,,,,,,,,,,,,,,,,,,419.9566939211313,None,$.01,10.924,0.018265747672103316,None,None,419.9566939211313,None,,,,,,,012,001,2020_Jan_11_1158,choiceText,3.1.2,60.0741572528969,
"Trying to solve a 
Rubik’s cube",0,85,85,73,,,,,,,,,,,,,,,,,,,,,,,,,430.943396989288,None,$0,9.713,0.027738408143704874,None,None,430.943396989288,None,,,,,,,012,001,2020_Jan_11_1158,choiceText,3.1.2,60.0741572528969,
"Going to a street fair
with friends",0,86,86,40,,,,,,,,,,,,,,,,,,,,,,,,,440.712580627403,None,$.01,4.045,0.031077803208518162,None,None,440.712580627403,None,,,,,,,012,001,2020_Jan_11_1158,choiceText,3.1.2,60.0741572528969,
Making cookies with your partner,0,87,87,8,,,,,,,,,,,,,,,,,,,,,,,,,444.8141405979559,None,$.04,3.01,0.025899672592004208,None,None,444.8141405979559,None,,,,,,,012,001,2020_Jan_11_1158,choiceText,3.1.2,60.0741572528969,
"Teaching yourself a 
different language",0,88,88,66,,,,,,,,,,,,,,,,,,,,,,,,,447.8656043552405,None,$.03,2.945,0.024587489693658426,None,None,447.8656043552405,None,,,,,,,012,001,2020_Jan_11_1158,choiceText,3.1.2,60.0741572528969,
"Going for a bicycle
ride alone",0,89,89,95,,,,,,,,,,,,,,,,,,,,,,,,,450.88261794639493,None,$0,2.021,0.03435157357762364,None,None,450.88261794639493,None,,,,,,,012,001,2020_Jan_11_1158,choiceText,3.1.2,60.0741572528969,
Taking a nap,0,90,90,74,,,,,,,,,,,,,,,,,,,,,,,,,452.9329735482711,None,$.02,2.067,0.009806693283735513,None,None,452.9329735482711,None,,,,,,,012,001,2020_Jan_11_1158,choiceText,3.1.2,60.0741572528969,
Looking at your Twitter feed,0,91,91,48,,,,,,,,,,,,,,,,,,,,,,,,,455.050387325663,None,$0,2.597,0.015416516211644193,None,None,455.050387325663,None,,,,,,,012,001,2020_Jan_11_1158,choiceText,3.1.2,60.0741572528969,
Exercising from home,0,92,92,71,,,,,,,,,,,,,,,,,,,,,,,,,457.6678376476125,None,$0,3.413,0.013737021627548529,None,None,457.6678376476125,None,,,,,,,012,001,2020_Jan_11_1158,choiceText,3.1.2,60.0741572528969,
Writing journal entries,0,93,93,107,,,,,,,,,,,,,,,,,,,,,,,,,461.1202132460494,None,$0,28.869,0.013516510209228727,None,None,461.1202132460494,None,,,,,,,012,001,2020_Jan_11_1158,choiceText,3.1.2,60.0741572528969,
"Going to a bar 
with friends",0,94,94,35,,,,,,,,,,,,,,,,,,,,,,,,,490.0280189459427,None,$.03,4.033,0.013709652086618007,None,None,490.0280189459427,None,,,,,,,012,001,2020_Jan_11_1158,choiceText,3.1.2,60.0741572528969,
Getting a haircut,0,95,95,91,,,,,,,,,,,,,,,,,,,,,,,,,494.11205836679073,None,$.03,4.148,0.0232221228002345,None,None,494.11205836679073,None,,,,,,,012,001,2020_Jan_11_1158,choiceText,3.1.2,60.0741572528969,
Going to the zoo with friends,0,96,96,52,,,,,,,,,,,,,,,,,,,,,,,,,498.2986377743832,None,$0,2.147,0.014667897051822365,None,None,498.2986377743832,None,,,,,,,012,001,2020_Jan_11_1158,choiceText,3.1.2,60.0741572528969,
"Taking a road trip 
by yourself",0,97,97,75,,,,,,,,,,,,,,,,,,,,,,,,,500.4973319362425,None,$0,3.319,0.01991787271481371,None,None,500.4973319362425,None,,,,,,,012,001,2020_Jan_11_1158,choiceText,3.1.2,60.0741572528969,
"Playing videogames 
with friends",0,98,98,31,,,,,,,,,,,,,,,,,,,,,,,,,503.8651135696009,None,$.01,2.274,0.016151450601228134,None,None,503.8651135696009,None,,,,,,,012,001,2020_Jan_11_1158,choiceText,3.1.2,60.0741572528969,
Playing with a pet,0,99,99,87,,,,,,,,,,,,,,,,,,,,,,,,,506.18255515195824,None,$.03,10.878,0.017041582731053495,None,None,506.18255515195824,None,,,,,,,012,001,2020_Jan_11_1158,choiceText,3.1.2,60.0741572528969,
Becoming "InstaFamous",0,100,100,36,,,,,,,,,,,,,,,,,,,,,,,,,517.1023428016392,None,$.03,3.205,0.016139631935402576,None,None,517.1023428016392,None,,,,,,,012,001,2020_Jan_11_1158,choiceText,3.1.2,60.0741572528969,
"Taking an art class 
with friends",0,101,101,38,,,,,,,,,,,,,,,,,,,,,,,,,520.3532754654143,None,$0,2.254,0.016770997492130846,None,None,520.3532754654143,None,,,,,,,012,001,2020_Jan_11_1158,choiceText,3.1.2,60.0741572528969,
"Cleaning up around 
the house",0,102,102,79,,,,,,,,,,,,,,,,,,,,,,,,,522.67062965185,None,$.01,6.527,0.03278715547412503,None,None,522.67062965185,None,,,,,,,012,001,2020_Jan_11_1158,choiceText,3.1.2,60.0741572528969,
"Going to a comedy show 
with a significant other",0,103,103,56,,,,,,,,,,,,,,,,,,,,,,,,,529.2392990536046,None,$.04,5.186,0.019893302330729057,None,None,529.2392990536046,None,,,,,,,012,001,2020_Jan_11_1158,choiceText,3.1.2,60.0741572528969,
"Taking your friend 
to the spa",0,104,104,1,,,,,,,,,,,,,,,,,,,,,,,,,534.4911520182081,None,$0,3.732,0.028708782792364218,None,None,534.4911520182081,None,,,,,,,012,001,2020_Jan_11_1158,choiceText,3.1.2,60.0741572528969,
"Getting ice cream
with friends",0,105,105,49,,,,,,,,,,,,,,,,,,,,,,,,,538.2755357043443,None,$0,2.616,0.034809391360795416,None,None,538.2755357043443,None,,,,,,,012,001,2020_Jan_11_1158,choiceText,3.1.2,60.0741572528969,
Uploading photos on social media,0,106,106,5,,,,,,,,,,,,,,,,,,,,,,,,,540.9445231837121,None,$0,1.563,0.024966931062863296,None,None,540.9445231837121,None,,,,,,,012,001,2020_Jan_11_1158,choiceText,3.1.2,60.0741572528969,
"Listening to music
by yourself",0,107,107,109,,,,,,,,,,,,,,,,,,,,,,,,,542.5602007058228,None,$.02,1.572,0.020378178637656674,None,None,542.5602007058228,None,,,,,,,012,001,2020_Jan_11_1158,choiceText,3.1.2,60.0741572528969,
"Going sight-seeing
with family",0,108,108,24,,,,,,,,,,,,,,,,,,,,,,,,,544.1771210539264,None,$0,4.485,0.024397457991653937,None,None,544.1771210539264,None,,,,,,,012,001,2020_Jan_11_1158,choiceText,3.1.2,60.0741572528969,
"Going to an amusement 
park with a friend",0,109,109,27,,,,,,,,,,,,,,,,,,,,,,,,,548.7284885512895,None,$0,1.84,0.031021820056139404,None,None,548.7284885512895,None,,,,,,,012,001,2020_Jan_11_1158,choiceText,3.1.2,60.0741572528969,
,,,,,,,,,,,,,,,,,,,,,,,,,,,,,,,,,,,,,,550.5794007501117,551.5797699279028,space,21.64222442215305,550.5794007501117,None,012,001,2020_Jan_11_1158,choiceText,3.1.2,60.0741572528969,
