selectBlock,alltrials.thisRepN,alltrials.thisTrialN,alltrials.thisN,alltrials.thisIndex,Reward.thisRepN,Reward.thisTrialN,Reward.thisN,Reward.thisIndex,Loss.thisRepN,Loss.thisTrialN,Loss.thisN,Loss.thisIndex,Welcome.started,Welcome.stopped,response1.keys,response1.rt,response1.started,response1.stopped,firstTrialITI.started,firstTrialITI.stopped,rectangle.started,rectangle.stopped,text1.started,text1.stopped,response3.keys,response3.started,response3.stopped,ISI2.started,ISI2.stopped,rectangle2_2.started,rectangle2_2.stopped,feedback2_2.started,feedback2_2.stopped,arrow2_2.started,arrow2_2.stopped,ITI2_2.started,ITI2_2.stopped,polygon.started,polygon.stopped,text.started,text.stopped,response2.keys,response2.rt,response2.started,response2.stopped,ISI.started,ISI.stopped,polygon2_2.started,polygon2_2.stopped,feedback1_2.started,feedback1_2.stopped,arrow1_2.started,arrow1_2.stopped,ITI_2.started,ITI_2.stopped,response3.rt,Finished.started,Finished.stopped,key_resp_2.keys,key_resp_2.rt,key_resp_2.started,key_resp_2.stopped,participant,session,date,expName,psychopyVersion,frameRate,
,,,,,,,,,,,,,20.197361476423794,None,space,18.491234830651138,20.197361476423794,None,,,,,,,,,,,,,,,,,,,,,,,,,,,,,,,,,,,,,,,,,,,,,014,001,2020_Feb_04_1230,Experiment1,3.1.2,59.9739793662812,
2,0,0,0,11,,,,,0,0,0,0,,,,,,,38.7185460813248,None,44.820826036152994,46.820851539351224,44.820826036152994,46.820851539351224,None,44.820826036152994,46.820851539351224,46.8375716849805,None,48.854877471127566,50.822066362432,48.854877471127566,49.82174073013175,49.838473938375046,50.822066362432,50.83881543242069,None,,,,,,,,,,,,,,,,,,,,,,,,,,014,001,2020_Feb_04_1230,Experiment1,3.1.2,59.9739793662812,
2,0,0,0,11,,,,,,,,,,,,,,,,,,,,,,,,,,,,,,,,,,,,,,,,,,,,,,,,,,,,,,,,,,,014,001,2020_Feb_04_1230,Experiment1,3.1.2,59.9739793662812,
1,0,1,1,6,0,0,0,0,,,,,,,,,,,,,,,,,,,,,,,,,,,,,,52.82391161213491,54.82322706897003,52.82391161213491,54.82322706897003,1,0.46447886546866357,52.82391161213491,54.82322706897003,54.839903672553646,None,56.85711117808296,58.824349209696265,56.85711117808296,57.824001184343615,57.84077855666192,58.824349209696265,58.841049761404975,None,,,,,,,,014,001,2020_Feb_04_1230,Experiment1,3.1.2,59.9739793662812,
1,0,1,1,6,,,,,,,,,,,,,,,,,,,,,,,,,,,,,,,,,,,,,,,,,,,,,,,,,,,,,,,,,,,014,001,2020_Feb_04_1230,Experiment1,3.1.2,59.9739793662812,
1,0,2,2,23,0,0,0,0,,,,,,,,,,,,,,,,,,,,,,,,,,,,,,60.82664698566168,62.82554257276888,60.82664698566168,62.82554257276888,1,0.765595439032495,60.82664698566168,62.82554257276888,62.84220549170914,None,64.84286670877782,66.82672473931507,64.84286670877782,65.82607129761209,65.8427559875754,66.82672473931507,66.8433699304228,None,,,,,,,,014,001,2020_Feb_04_1230,Experiment1,3.1.2,59.9739793662812,
1,0,2,2,23,,,,,,,,,,,,,,,,,,,,,,,,,,,,,,,,,,,,,,,,,,,,,,,,,,,,,,,,,,,014,001,2020_Feb_04_1230,Experiment1,3.1.2,59.9739793662812,
2,0,3,3,9,,,,,0,0,0,0,,,,,,,,,68.82890215262523,70.82789259918945,68.82890215262523,70.82789259918945,2,68.82890215262523,70.82789259918945,70.84454867580871,None,72.84528111522377,74.82905112862545,72.84528111522377,73.82876188503451,73.84542355991653,74.82905112862545,74.84571653568264,None,,,,,,,,,,,,,,,,,,,0.3071141793739116,,,,,,,014,001,2020_Feb_04_1230,Experiment1,3.1.2,59.9739793662812,
2,0,3,3,9,,,,,,,,,,,,,,,,,,,,,,,,,,,,,,,,,,,,,,,,,,,,,,,,,,,,,,,,,,,014,001,2020_Feb_04_1230,Experiment1,3.1.2,59.9739793662812,
1,0,4,4,5,0,0,0,0,,,,,,,,,,,,,,,,,,,,,,,,,,,,,,76.83017637949752,78.83023391720099,76.83017637949752,78.83023391720099,2,0.6095441676516202,76.83017637949752,78.83023391720099,78.84675936768235,None,80.84748278767347,82.83137098662837,80.84748278767347,81.83096169139708,81.84776425589916,82.83137098662837,82.84809299834569,None,,,,,,,,014,001,2020_Feb_04_1230,Experiment1,3.1.2,59.9739793662812,
1,0,4,4,5,,,,,,,,,,,,,,,,,,,,,,,,,,,,,,,,,,,,,,,,,,,,,,,,,,,,,,,,,,,014,001,2020_Feb_04_1230,Experiment1,3.1.2,59.9739793662812,
1,0,5,5,16,0,0,0,0,,,,,,,,,,,,,,,,,,,,,,,,,,,,,,84.83348775208879,86.83252889403502,84.83348775208879,86.83252889403502,1,0.5341651108160477,84.83348775208879,86.83252889403502,86.84921109588186,None,88.84977558740547,90.83371106058166,88.84977558740547,89.83333131173822,89.8500887791215,90.83371106058166,90.85038237691651,None,,,,,,,,014,001,2020_Feb_04_1230,Experiment1,3.1.2,59.9739793662812,
1,0,5,5,16,,,,,,,,,,,,,,,,,,,,,,,,,,,,,,,,,,,,,,,,,,,,,,,,,,,,,,,,,,,014,001,2020_Feb_04_1230,Experiment1,3.1.2,59.9739793662812,
2,0,6,6,21,,,,,0,0,0,0,,,,,,,,,92.85093536089971,94.83487332219283,92.85093536089971,94.83487332219283,1,92.85093536089971,94.83487332219283,94.85153872925002,None,96.85210135468606,98.83603340670152,96.85210135468606,97.8357258132487,97.85240739306619,98.83603340670152,98.85269632564223,None,,,,,,,,,,,,,,,,,,,0.5805862190049993,,,,,,,014,001,2020_Feb_04_1230,Experiment1,3.1.2,59.9739793662812,
2,0,6,6,21,,,,,,,,,,,,,,,,,,,,,,,,,,,,,,,,,,,,,,,,,,,,,,,,,,,,,,,,,,,014,001,2020_Feb_04_1230,Experiment1,3.1.2,59.9739793662812,
2,0,7,7,3,,,,,0,0,0,0,,,,,,,,,100.83802110109718,102.83720499875108,100.83802110109718,102.83720499875108,1,100.83802110109718,102.83720499875108,102.85386791769179,None,104.85442898805468,106.83837316963991,104.85442898805468,105.83808392604942,105.8547061020754,106.83837316963991,106.8550314233612,None,,,,,,,,,,,,,,,,,,,0.4412998793573024,,,,,,,014,001,2020_Feb_04_1230,Experiment1,3.1.2,59.9739793662812,
2,0,7,7,3,,,,,,,,,,,,,,,,,,,,,,,,,,,,,,,,,,,,,,,,,,,,,,,,,,,,,,,,,,,014,001,2020_Feb_04_1230,Experiment1,3.1.2,59.9739793662812,
2,0,8,8,18,,,,,0,0,0,0,,,,,,,,,108.8403490454807,110.83953791936801,108.8403490454807,110.83953791936801,1,108.8403490454807,110.83953791936801,110.85618217743195,None,112.85675942055468,114.84070888938868,112.85675942055468,113.84040129593541,113.85706079371539,114.84070888938868,114.85737243035828,None,,,,,,,,,,,,,,,,,,,0.27885321447593014,,,,,,,014,001,2020_Feb_04_1230,Experiment1,3.1.2,59.9739793662812,
2,0,8,8,18,,,,,,,,,,,,,,,,,,,,,,,,,,,,,,,,,,,,,,,,,,,,,,,,,,,,,,,,,,,014,001,2020_Feb_04_1230,Experiment1,3.1.2,59.9739793662812,
2,0,9,9,8,,,,,0,0,0,0,,,,,,,,,116.8425905278009,118.84185933244453,116.8425905278009,118.84185933244453,1,116.8425905278009,118.84185933244453,118.85851914123896,None,120.85908892001089,122.84301133057306,120.85908892001089,121.84273172843541,121.85940055665378,122.84301133057306,122.85967984777699,None,,,,,,,,,,,,,,,,,,,0.34845393080468057,,,,,,,014,001,2020_Feb_04_1230,Experiment1,3.1.2,59.9739793662812,
2,0,9,9,8,,,,,,,,,,,,,,,,,,,,,,,,,,,,,,,,,,,,,,,,,,,,,,,,,,,,,,,,,,,014,001,2020_Feb_04_1230,Experiment1,3.1.2,59.9739793662812,
1,0,10,10,2,0,0,0,0,,,,,,,,,,,,,,,,,,,,,,,,,,,,,,124.8448683988313,126.84416581681899,124.8448683988313,126.84416581681899,1,0.3698759953631452,124.8448683988313,126.84416581681899,126.86085517200172,None,128.86142432874476,130.8453610459792,128.86142432874476,129.84492811363725,129.86160098504524,130.8453610459792,130.86201712259844,None,,,,,,,,014,001,2020_Feb_04_1230,Experiment1,3.1.2,59.9739793662812,
1,0,10,10,2,,,,,,,,,,,,,,,,,,,,,,,,,,,,,,,,,,,,,,,,,,,,,,,,,,,,,,,,,,,014,001,2020_Feb_04_1230,Experiment1,3.1.2,59.9739793662812,
1,0,11,11,0,0,0,0,0,,,,,,,,,,,,,,,,,,,,,,,,,,,,,,132.8481234777778,134.84651397715197,132.8481234777778,134.84651397715197,1,0.462524449636021,132.8481234777778,134.84651397715197,134.8631908917505,None,136.86373952152871,138.84767312861732,136.86373952152871,137.84729306875943,137.8639765146645,138.84767312861732,138.86433604755757,None,,,,,,,,014,001,2020_Feb_04_1230,Experiment1,3.1.2,59.9739793662812,
1,0,11,11,0,,,,,,,,,,,,,,,,,,,,,,,,,,,,,,,,,,,,,,,,,,,,,,,,,,,,,,,,,,,014,001,2020_Feb_04_1230,Experiment1,3.1.2,59.9739793662812,
1,0,12,12,4,0,0,0,0,,,,,,,,,,,,,,,,,,,,,,,,,,,,,,140.85042529693328,142.84883259109665,140.85042529693328,142.84883259109665,1,0.2679011458712921,140.85042529693328,142.84883259109665,142.86549675409606,None,144.8660404076404,146.8499758808166,144.8660404076404,145.8496832160654,145.86635608747338,146.8499758808166,146.86666430295554,None,,,,,,,,014,001,2020_Feb_04_1230,Experiment1,3.1.2,59.9739793662812,
1,0,12,12,4,,,,,,,,,,,,,,,,,,,,,,,,,,,,,,,,,,,,,,,,,,,,,,,,,,,,,,,,,,,014,001,2020_Feb_04_1230,Experiment1,3.1.2,59.9739793662812,
2,0,13,13,10,,,,,0,0,0,0,,,,,,,,,148.8527022349199,150.85116177953842,148.8527022349199,150.85116177953842,2,148.8527022349199,150.85116177953842,150.86783185181503,None,152.86837426130114,154.85227303475313,152.86837426130114,153.8519641972416,153.8687005156312,154.85227303475313,154.86899504647,None,,,,,,,,,,,,,,,,,,,0.305528004844291,,,,,,,014,001,2020_Feb_04_1230,Experiment1,3.1.2,59.9739793662812,
2,0,13,13,10,,,,,,,,,,,,,,,,,,,,,,,,,,,,,,,,,,,,,,,,,,,,,,,,,,,,,,,,,,,014,001,2020_Feb_04_1230,Experiment1,3.1.2,59.9739793662812,
1,0,14,14,13,0,0,0,0,,,,,,,,,,,,,,,,,,,,,,,,,,,,,,156.8539630881637,158.85341041519496,156.8539630881637,158.85341041519496,2,0.2562001540768506,156.8539630881637,158.85341041519496,158.87016259532993,None,160.87083563095348,162.85465291857645,160.87083563095348,161.854235536965,161.8709158727238,162.85465291857645,162.87134071868604,None,,,,,,,,014,001,2020_Feb_04_1230,Experiment1,3.1.2,59.9739793662812,
1,0,14,14,13,,,,,,,,,,,,,,,,,,,,,,,,,,,,,,,,,,,,,,,,,,,,,,,,,,,,,,,,,,,014,001,2020_Feb_04_1230,Experiment1,3.1.2,59.9739793662812,
1,0,15,15,22,0,0,0,0,,,,,,,,,,,,,,,,,,,,,,,,,,,,,,164.85728970047103,166.85581144801245,164.85728970047103,166.85581144801245,2,0.27662945998827126,164.85728970047103,166.85581144801245,166.87249738203445,None,168.87303979152057,170.85695504874684,168.87303979152057,169.85660329121856,169.87326278899855,170.85695504874684,170.8736543563973,None,,,,,,,,014,001,2020_Feb_04_1230,Experiment1,3.1.2,59.9739793662812,
1,0,15,15,22,,,,,,,,,,,,,,,,,,,,,,,,,,,,,,,,,,,,,,,,,,,,,,,,,,,,,,,,,,,014,001,2020_Feb_04_1230,Experiment1,3.1.2,59.9739793662812,
2,0,16,16,17,,,,,0,0,0,0,,,,,,,,,172.85953864714247,174.85807843353132,172.85953864714247,174.85807843353132,2,172.85953864714247,174.85807843353132,174.87482035018365,None,176.87536866894743,178.8592904574807,176.87536866894743,177.85901894172275,177.87567657341515,178.8592904574807,178.87596923816636,None,,,,,,,,,,,,,,,,,,,0.5462691775501298,,,,,,,014,001,2020_Feb_04_1230,Experiment1,3.1.2,59.9739793662812,
2,0,16,16,17,,,,,,,,,,,,,,,,,,,,,,,,,,,,,,,,,,,,,,,,,,,,,,,,,,,,,,,,,,,014,001,2020_Feb_04_1230,Experiment1,3.1.2,59.9739793662812,
1,0,17,17,20,0,0,0,0,,,,,,,,,,,,,,,,,,,,,,,,,,,,,,180.8608047876346,182.86045676228196,180.8608047876346,182.86045676228196,1,0.3367237036363804,180.8608047876346,182.86045676228196,182.87714642847914,None,184.8776975463743,186.86161902389313,184.8776975463743,185.86121377185145,185.87800700591515,186.86161902389313,186.8783096231341,None,,,,,,,,014,001,2020_Feb_04_1230,Experiment1,3.1.2,59.9739793662812,
1,0,17,17,20,,,,,,,,,,,,,,,,,,,,,,,,,,,,,,,,,,,,,,,,,,,,,,,,,,,,,,,,,,,014,001,2020_Feb_04_1230,Experiment1,3.1.2,59.9739793662812,
2,0,18,18,14,,,,,0,0,0,0,,,,,,,,,188.8641068297875,190.86278532869392,188.8641068297875,190.86278532869392,1,188.8641068297875,190.86278532869392,190.8794501137222,None,192.88002362466978,194.86397060538684,192.88002362466978,193.86366892121168,193.88033743841515,194.86397060538684,194.88063974461966,None,,,,,,,,,,,,,,,,,,,0.3253122664473267,,,,,,,014,001,2020_Feb_04_1230,Experiment1,3.1.2,59.9739793662812,
2,0,18,18,14,,,,,,,,,,,,,,,,,,,,,,,,,,,,,,,,,,,,,,,,,,,,,,,,,,,,,,,,,,,014,001,2020_Feb_04_1230,Experiment1,3.1.2,59.9739793662812,
2,0,19,19,1,,,,,0,0,0,0,,,,,,,,,196.86539225318575,198.86512602467656,196.86539225318575,198.86512602467656,1,196.86539225318575,198.86512602467656,198.88178801057302,None,200.88236152152058,202.8662932625216,200.88236152152058,201.8660024638575,201.88266382772508,202.8662932625216,202.88296364581265,None,,,,,,,,,,,,,,,,,,,0.4278363677476591,,,,,,,014,001,2020_Feb_04_1230,Experiment1,3.1.2,59.9739793662812,
2,0,19,19,1,,,,,,,,,,,,,,,,,,,,,,,,,,,,,,,,,,,,,,,,,,,,,,,,,,,,,,,,,,,014,001,2020_Feb_04_1230,Experiment1,3.1.2,59.9739793662812,
2,0,20,20,15,,,,,0,0,0,0,,,,,,,,,204.86869678345556,206.86744650470882,204.86869678345556,206.86744650470882,1,204.86869678345556,206.86744650470882,206.88411844307302,None,208.88468728880162,210.8686059671886,208.88468728880162,209.8682983737358,209.88500016950275,210.8686059671886,210.88530154266346,None,,,,,,,,,,,,,,,,,,,0.752279037335029,,,,,,,014,001,2020_Feb_04_1230,Experiment1,3.1.2,59.9739793662812,
2,0,20,20,15,,,,,,,,,,,,,,,,,,,,,,,,,,,,,,,,,,,,,,,,,,,,,,,,,,,,,,,,,,,014,001,2020_Feb_04_1230,Experiment1,3.1.2,59.9739793662812,
1,0,21,21,12,0,0,0,0,,,,,,,,,,,,,,,,,,,,,,,,,,,,,,212.86994426307092,214.86977040590182,212.86994426307092,214.86977040590182,1,0.2868192317755529,212.86994426307092,214.86977040590182,214.88646318224528,None,216.88700621376074,218.8709447970832,216.88700621376074,217.87055727287452,217.887344908675,218.8709447970832,218.88761611341806,None,,,,,,,,014,001,2020_Feb_04_1230,Experiment1,3.1.2,59.9739793662812,
1,0,21,21,12,,,,,,,,,,,,,,,,,,,,,,,,,,,,,,,,,,,,,,,,,,,,,,,,,,,,,,,,,,,014,001,2020_Feb_04_1230,Experiment1,3.1.2,59.9739793662812,
1,0,22,22,7,0,0,0,0,,,,,,,,,,,,,,,,,,,,,,,,,,,,,,220.87322608927434,222.87209337405147,220.87322608927434,222.87209337405147,1,0.3474798330348676,220.87322608927434,222.87209337405147,222.88875007269962,None,224.88933913437768,226.8732686982762,224.88933913437768,225.87284696246024,225.88952076691203,226.8732686982762,226.8899278850413,None,,,,,,,,014,001,2020_Feb_04_1230,Experiment1,3.1.2,59.9739793662812,
1,0,22,22,7,,,,,,,,,,,,,,,,,,,,,,,,,,,,,,,,,,,,,,,,,,,,,,,,,,,,,,,,,,,014,001,2020_Feb_04_1230,Experiment1,3.1.2,59.9739793662812,
1,0,23,23,19,0,0,0,0,,,,,,,,,,,,,,,,,,,,,,,,,,,,,,228.87548374435437,230.87442567263906,228.87548374435437,230.87442567263906,1,0.31307228632749684,228.87548374435437,230.87442567263906,230.89108174925786,None,232.89166085846864,234.87559415454234,232.89166085846864,233.87521440569935,233.89187328145,234.87559415454234,234.8922567624686,None,,,,,,,,014,001,2020_Feb_04_1230,Experiment1,3.1.2,59.9739793662812,
1,0,23,23,19,,,,,,,,,,,,,,,,,,,,,,,,,,,,,,,,,,,,,,,,,,,,,,,,,,,,,,,,,,,014,001,2020_Feb_04_1230,Experiment1,3.1.2,59.9739793662812,
1,0,24,24,24,0,0,0,0,,,,,,,,,,,,,,,,,,,,,,,,,,,,,,236.8777715678525,238.87674646368578,236.8777715678525,238.87674646368578,1,0.5905682330298987,236.8777715678525,238.87674646368578,238.89337517101922,None,240.89399782227565,242.87791307950192,240.89399782227565,241.8775295984833,241.89431972240072,242.87791307950192,242.89458439583677,None,,,,,,,,014,001,2020_Feb_04_1230,Experiment1,3.1.2,59.9739793662812,
1,0,24,24,24,,,,,,,,,,,,,,,,,,,,,,,,,,,,,,,,,,,,,,,,,,,,,,,,,,,,,,,,,,,014,001,2020_Feb_04_1230,Experiment1,3.1.2,59.9739793662812,
,,,,,,,,,,,,,,,,,,,,,,,,,,,,,,,,,,,,,,,,,,,,,,,,,,,,,,,,,244.87850991654523,None,space,22.397259588036377,244.87850991654523,None,014,001,2020_Feb_04_1230,Experiment1,3.1.2,59.9739793662812,
