selectBlock,alltrials.thisRepN,alltrials.thisTrialN,alltrials.thisN,alltrials.thisIndex,Reward.thisRepN,Reward.thisTrialN,Reward.thisN,Reward.thisIndex,Loss.thisRepN,Loss.thisTrialN,Loss.thisN,Loss.thisIndex,Welcome.started,Welcome.stopped,response1.keys,response1.rt,response1.started,response1.stopped,firstTrialITI.started,firstTrialITI.stopped,polygon.started,polygon.stopped,text.started,text.stopped,response2.keys,response2.rt,response2.started,response2.stopped,ISI.started,ISI.stopped,polygon2_2.started,polygon2_2.stopped,feedback1_2.started,feedback1_2.stopped,arrow1_2.started,arrow1_2.stopped,ITI_2.started,ITI_2.stopped,rectangle.started,rectangle.stopped,text1.started,text1.stopped,response3.keys,response3.rt,response3.started,response3.stopped,ISI2.started,ISI2.stopped,rectangle2_2.started,rectangle2_2.stopped,feedback2_2.started,feedback2_2.stopped,arrow2_2.started,arrow2_2.stopped,ITI2_2.started,ITI2_2.stopped,Finished.started,Finished.stopped,key_resp_2.keys,key_resp_2.rt,key_resp_2.started,key_resp_2.stopped,participant,session,date,expName,psychopyVersion,frameRate,
,,,,,,,,,,,,,10.19980511823087,None,space,32.835713061649585,10.19980511823087,None,,,,,,,,,,,,,,,,,,,,,,,,,,,,,,,,,,,,,,,,,,,,,015,001,2020_Feb_07_0946,Experiment1,3.1.2,59.83357866192902,
1,0,0,0,6,0,0,0,0,,,,,,,,,,,43.0591985215724,None,49.11303452914581,51.11152206509723,49.11303452914581,51.11152206509723,2,1.3464012343611103,49.11303452914581,51.11152206509723,51.12832805074868,None,53.112201320996974,55.11273533309577,53.112201320996974,54.11241654312471,54.129244299809216,55.11273533309577,55.12933231695206,None,,,,,,,,,,,,,,,,,,,,,,,,,015,001,2020_Feb_07_0946,Experiment1,3.1.2,59.83357866192902,
1,0,0,0,6,,,,,,,,,,,,,,,,,,,,,,,,,,,,,,,,,,,,,,,,,,,,,,,,,,,,,,,,,,,015,001,2020_Feb_07_0946,Experiment1,3.1.2,59.83357866192902,
2,0,1,1,17,,,,,0,0,0,0,,,,,,,,,,,,,,,,,,,,,,,,,,,57.11333372522495,59.11389292948297,57.11333372522495,59.11389292948297,1,0.8819929691962898,57.11333372522495,59.11389292948297,59.1305483840697,None,61.11449038857245,63.11499640933471,61.11449038857245,62.11470405559521,62.13146090094233,63.11499640933471,63.13189569939277,None,,,,,,,015,001,2020_Feb_07_0946,Experiment1,3.1.2,59.83357866192902,
2,0,1,1,17,,,,,,,,,,,,,,,,,,,,,,,,,,,,,,,,,,,,,,,,,,,,,,,,,,,,,,,,,,,015,001,2020_Feb_07_0946,Experiment1,3.1.2,59.83357866192902,
2,0,2,2,3,,,,,0,0,0,0,,,,,,,,,,,,,,,,,,,,,,,,,,,65.11572822672315,67.11625912867021,65.11572822672315,67.11625912867021,1,0.3994174074323382,65.11572822672315,67.11625912867021,67.13296901082504,None,69.11682299815584,71.11744440536131,69.11682299815584,70.1171169069712,70.13384576101089,71.11744440536131,71.13413282748661,None,,,,,,,015,001,2020_Feb_07_0946,Experiment1,3.1.2,59.83357866192902,
2,0,2,2,3,,,,,,,,,,,,,,,,,,,,,,,,,,,,,,,,,,,,,,,,,,,,,,,,,,,,,,,,,,,015,001,2020_Feb_07_0946,Experiment1,3.1.2,59.83357866192902,
1,0,3,3,16,0,0,0,0,,,,,,,,,,,,,73.1180253806524,75.11861350928666,73.1180253806524,75.11861350928666,1,0.29296363645698875,73.1180253806524,75.11861350928666,75.1353050415928,None,77.11919106342248,79.11966691579437,77.11919106342248,78.11954966327175,78.13628318253905,79.11966691579437,79.13650120378588,None,,,,,,,,,,,,,,,,,,,,,,,,,015,001,2020_Feb_07_0946,Experiment1,3.1.2,59.83357866192902,
1,0,3,3,16,,,,,,,,,,,,,,,,,,,,,,,,,,,,,,,,,,,,,,,,,,,,,,,,,,,,,,,,,,,015,001,2020_Feb_07_0946,Experiment1,3.1.2,59.83357866192902,
1,0,4,4,20,0,0,0,0,,,,,,,,,,,,,81.12109944911208,83.12091190728825,81.12109944911208,83.12091190728825,2,0.2735765405523125,81.12109944911208,83.12091190728825,83.13747125834925,None,85.12136972078588,87.12212393124355,85.12136972078588,86.12183406561962,86.13847770166467,87.12212393124355,87.13861050488777,None,,,,,,,,,,,,,,,,,,,,,,,,,015,001,2020_Feb_07_0946,Experiment1,3.1.2,59.83357866192902,
1,0,4,4,20,,,,,,,,,,,,,,,,,,,,,,,,,,,,,,,,,,,,,,,,,,,,,,,,,,,,,,,,,,,015,001,2020_Feb_07_0946,Experiment1,3.1.2,59.83357866192902,
1,0,5,5,12,0,0,0,0,,,,,,,,,,,,,89.12267069492373,91.1231297524937,89.12267069492373,91.1231297524937,2,0.3358298476377968,89.12267069492373,91.1231297524937,91.13978614012012,None,93.12375458085444,95.12428206164623,93.12375458085444,94.12409700793796,94.14083643647609,95.12428206164623,95.14109706672025,None,,,,,,,,,,,,,,,,,,,,,,,,,015,001,2020_Feb_07_0946,Experiment1,3.1.2,59.83357866192902,
1,0,5,5,12,,,,,,,,,,,,,,,,,,,,,,,,,,,,,,,,,,,,,,,,,,,,,,,,,,,,,,,,,,,015,001,2020_Feb_07_0946,Experiment1,3.1.2,59.83357866192902,
2,0,6,6,14,,,,,0,0,0,0,,,,,,,,,,,,,,,,,,,,,,,,,,,97.12504218134563,99.12559298824635,97.12504218134563,99.12559298824635,1,0.2853042795904912,97.12504218134563,99.12559298824635,99.14217317730072,None,101.12608190320316,103.12653909469373,101.12608190320316,102.12637798913056,102.14309471359593,103.12653909469373,103.14342127894633,None,,,,,,,015,001,2020_Feb_07_0946,Experiment1,3.1.2,59.83357866192902,
2,0,6,6,14,,,,,,,,,,,,,,,,,,,,,,,,,,,,,,,,,,,,,,,,,,,,,,,,,,,,,,,,,,,015,001,2020_Feb_07_0946,Experiment1,3.1.2,59.83357866192902,
2,0,7,7,21,,,,,0,0,0,0,,,,,,,,,,,,,,,,,,,,,,,,,,,105.12750386202242,107.12807799500297,105.12750386202242,107.12807799500297,1,0.36266418849118054,105.12750386202242,107.12807799500297,107.14464667651919,None,109.12864715175238,111.12908443828928,109.12864715175238,110.12878430919955,110.1453819150629,111.12908443828928,111.14563974618795,None,,,,,,,015,001,2020_Feb_07_0946,Experiment1,3.1.2,59.83357866192902,
2,0,7,7,21,,,,,,,,,,,,,,,,,,,,,,,,,,,,,,,,,,,,,,,,,,,,,,,,,,,,,,,,,,,015,001,2020_Feb_07_0946,Experiment1,3.1.2,59.83357866192902,
2,0,8,8,18,,,,,0,0,0,0,,,,,,,,,,,,,,,,,,,,,,,,,,,113.12967940923409,115.13020937814144,113.12967940923409,115.13020937814144,1,0.41646442940691486,113.12967940923409,115.13020937814144,115.14679236634402,None,117.1307614290854,119.13138065917883,117.1307614290854,118.13125967449741,118.14787003197125,119.13138065917883,119.14790020039072,None,,,,,,,015,001,2020_Feb_07_0946,Experiment1,3.1.2,59.83357866192902,
2,0,8,8,18,,,,,,,,,,,,,,,,,,,,,,,,,,,,,,,,,,,,,,,,,,,,,,,,,,,,,,,,,,,015,001,2020_Feb_07_0946,Experiment1,3.1.2,59.83357866192902,
2,0,9,9,8,,,,,0,0,0,0,,,,,,,,,,,,,,,,,,,,,,,,,,,121.1319236907002,123.13254665298155,121.1319236907002,123.13254665298155,1,0.41391442058375105,121.1319236907002,123.13254665298155,123.14927301890566,None,125.13323959353147,127.13371046964312,125.13323959353147,126.13335529097822,126.15005086644669,127.13371046964312,127.15040635614423,None,,,,,,,015,001,2020_Feb_07_0946,Experiment1,3.1.2,59.83357866192902,
2,0,9,9,8,,,,,,,,,,,,,,,,,,,,,,,,,,,,,,,,,,,,,,,,,,,,,,,,,,,,,,,,,,,015,001,2020_Feb_07_0946,Experiment1,3.1.2,59.83357866192902,
1,0,10,10,5,0,0,0,0,,,,,,,,,,,,,129.13438754845993,131.13486091271625,129.13438754845993,131.13486091271625,1,0.4272619237599429,129.13438754845993,131.13486091271625,131.15151792237884,None,133.1354462422023,135.13599051779602,133.1354462422023,134.13576658727834,134.15238036590745,135.13599051779602,135.15263135469286,None,,,,,,,,,,,,,,,,,,,,,,,,,015,001,2020_Feb_07_0946,Experiment1,3.1.2,59.83357866192902,
1,0,10,10,5,,,,,,,,,,,,,,,,,,,,,,,,,,,,,,,,,,,,,,,,,,,,,,,,,,,,,,,,,,,015,001,2020_Feb_07_0946,Experiment1,3.1.2,59.83357866192902,
1,0,11,11,13,0,0,0,0,,,,,,,,,,,,,137.1365733591665,139.13713007533806,137.1365733591665,139.13713007533806,1,0.4088878024194855,137.1365733591665,139.13713007533806,139.15401661378564,None,141.13780808719457,143.13850600397564,141.13780808719457,142.13811225947575,142.1548619515088,143.13850600397564,143.15514870698098,None,,,,,,,,,,,,,,,,,,,,,,,,,015,001,2020_Feb_07_0946,Experiment1,3.1.2,59.83357866192902,
1,0,11,11,13,,,,,,,,,,,,,,,,,,,,,,,,,,,,,,,,,,,,,,,,,,,,,,,,,,,,,,,,,,,015,001,2020_Feb_07_0946,Experiment1,3.1.2,59.83357866192902,
2,0,12,12,10,,,,,0,0,0,0,,,,,,,,,,,,,,,,,,,,,,,,,,,145.13889135108911,147.13950871510315,145.13889135108911,147.13950871510315,2,0.3344013575115241,145.13889135108911,147.13950871510315,147.1562189082615,None,149.13999296486145,151.14066351237125,149.13999296486145,150.1405580783903,150.15698120507295,151.14066351237125,151.15727200373658,None,,,,,,,015,001,2020_Feb_07_0946,Experiment1,3.1.2,59.83357866192902,
2,0,12,12,10,,,,,,,,,,,,,,,,,,,,,,,,,,,,,,,,,,,,,,,,,,,,,,,,,,,,,,,,,,,015,001,2020_Feb_07_0946,Experiment1,3.1.2,59.83357866192902,
2,0,13,13,1,,,,,0,0,0,0,,,,,,,,,,,,,,,,,,,,,,,,,,,153.1413511656574,155.1417800548079,153.1413511656574,155.1417800548079,2,0.4757783373934217,153.1413511656574,155.1417800548079,155.15850424364908,None,157.14359606915968,159.14294791469,157.14359606915968,158.14280049377703,158.15928333523334,159.14294791469,159.15961083362345,None,,,,,,,015,001,2020_Feb_07_0946,Experiment1,3.1.2,59.83357866192902,
2,0,13,13,1,,,,,,,,,,,,,,,,,,,,,,,,,,,,,,,,,,,,,,,,,,,,,,,,,,,,,,,,,,,015,001,2020_Feb_07_0946,Experiment1,3.1.2,59.83357866192902,
2,0,14,14,9,,,,,0,0,0,0,,,,,,,,,,,,,,,,,,,,,,,,,,,161.1435889158165,163.14406974441954,161.1435889158165,163.14406974441954,2,0.5133526349090971,161.1435889158165,163.14406974441954,163.16083965238067,None,165.14467591189896,167.1452537770383,165.14467591189896,166.14495924618677,166.16167876980035,167.1452537770383,167.1619624151208,None,,,,,,,015,001,2020_Feb_07_0946,Experiment1,3.1.2,59.83357866192902,
2,0,14,14,9,,,,,,,,,,,,,,,,,,,,,,,,,,,,,,,,,,,,,,,,,,,,,,,,,,,,,,,,,,,015,001,2020_Feb_07_0946,Experiment1,3.1.2,59.83357866192902,
1,0,15,15,2,0,0,0,0,,,,,,,,,,,,,169.14594018628122,171.14654013348627,169.14594018628122,171.14654013348627,2,0.5668561678903643,169.14594018628122,171.14654013348627,171.16314084950136,None,173.1470937395061,175.14764952260884,173.1470937395061,174.14728781260783,174.16403066230123,175.14764952260884,175.16433949981,None,,,,,,,,,,,,,,,,,,,,,,,,,015,001,2020_Feb_07_0946,Experiment1,3.1.2,59.83357866192902,
1,0,15,15,2,,,,,,,,,,,,,,,,,,,,,,,,,,,,,,,,,,,,,,,,,,,,,,,,,,,,,,,,,,,015,001,2020_Feb_07_0946,Experiment1,3.1.2,59.83357866192902,
1,0,16,16,22,0,0,0,0,,,,,,,,,,,,,177.14822489963262,179.14888456164044,177.14822489963262,179.14888456164044,2,0.2763563891639933,177.14822489963262,179.14888456164044,179.16535247440333,None,181.1493535716727,183.1499348579964,181.1493535716727,182.14961700106505,182.16631848580437,183.1499348579964,183.1666562476894,None,,,,,,,,,,,,,,,,,,,,,,,,,015,001,2020_Feb_07_0946,Experiment1,3.1.2,59.83357866192902,
1,0,16,16,22,,,,,,,,,,,,,,,,,,,,,,,,,,,,,,,,,,,,,,,,,,,,,,,,,,,,,,,,,,,015,001,2020_Feb_07_0946,Experiment1,3.1.2,59.83357866192902,
1,0,17,17,0,0,0,0,0,,,,,,,,,,,,,185.15060042927507,187.15109089930775,185.15060042927507,187.15109089930775,2,0.2979212094214745,185.15060042927507,187.15109089930775,187.16779145100736,None,189.15176424593665,191.15225409396226,189.15176424593665,190.15198910952313,190.16881220098003,191.15225409396226,191.16906070164987,None,,,,,,,,,,,,,,,,,,,,,,,,,015,001,2020_Feb_07_0946,Experiment1,3.1.2,59.83357866192902,
1,0,17,17,0,,,,,,,,,,,,,,,,,,,,,,,,,,,,,,,,,,,,,,,,,,,,,,,,,,,,,,,,,,,015,001,2020_Feb_07_0946,Experiment1,3.1.2,59.83357866192902,
1,0,18,18,7,0,0,0,0,,,,,,,,,,,,,193.15295512089506,195.15340795819066,193.15295512089506,195.15340795819066,1,0.37529231485677883,193.15295512089506,195.15340795819066,195.17021425484563,None,197.15406730916584,199.15455715719145,197.15406730916584,198.15436277305707,198.17114605463576,199.15455715719145,199.17129378658137,None,,,,,,,,,,,,,,,,,,,,,,,,,015,001,2020_Feb_07_0946,Experiment1,3.1.2,59.83357866192902,
1,0,18,18,7,,,,,,,,,,,,,,,,,,,,,,,,,,,,,,,,,,,,,,,,,,,,,,,,,,,,,,,,,,,015,001,2020_Feb_07_0946,Experiment1,3.1.2,59.83357866192902,
1,0,19,19,23,0,0,0,0,,,,,,,,,,,,,201.15526440439862,203.1557215958892,201.15526440439862,203.1557215958892,1,0.3489058350387495,201.15526440439862,203.1557215958892,203.17256801345502,None,205.17296144695138,207.1569270885375,205.17296144695138,206.1567364365619,206.17340308768325,207.1569270885375,207.17358627531212,None,,,,,,,,,,,,,,,,,,,,,,,,,015,001,2020_Feb_07_0946,Experiment1,3.1.2,59.83357866192902,
1,0,19,19,23,,,,,,,,,,,,,,,,,,,,,,,,,,,,,,,,,,,,,,,,,,,,,,,,,,,,,,,,,,,015,001,2020_Feb_07_0946,Experiment1,3.1.2,59.83357866192902,
1,0,20,20,4,0,0,0,0,,,,,,,,,,,,,209.15755564905703,211.15810023565427,209.15755564905703,211.15810023565427,2,0.33847222779877484,209.15755564905703,211.15810023565427,211.17500854513492,None,213.1587101353216,215.15944319675327,213.1587101353216,214.1590578496398,214.1757176584506,215.15944319675327,215.17608900988125,None,,,,,,,,,,,,,,,,,,,,,,,,,015,001,2020_Feb_07_0946,Experiment1,3.1.2,59.83357866192902,
1,0,20,20,4,,,,,,,,,,,,,,,,,,,,,,,,,,,,,,,,,,,,,,,,,,,,,,,,,,,,,,,,,,,015,001,2020_Feb_07_0946,Experiment1,3.1.2,59.83357866192902,
1,0,21,21,19,0,0,0,0,,,,,,,,,,,,,217.159887947666,219.16062567432527,217.159887947666,219.16062567432527,2,0.47193512981175445,217.159887947666,219.16062567432527,219.1770460018597,None,221.1628727549105,223.1616156338423,221.1628727549105,222.16135718068108,222.17803720544907,223.1616156338423,223.178258025815,None,,,,,,,,,,,,,,,,,,,,,,,,,015,001,2020_Feb_07_0946,Experiment1,3.1.2,59.83357866192902,
1,0,21,21,19,,,,,,,,,,,,,,,,,,,,,,,,,,,,,,,,,,,,,,,,,,,,,,,,,,,,,,,,,,,015,001,2020_Feb_07_0946,Experiment1,3.1.2,59.83357866192902,
1,0,22,22,24,0,0,0,0,,,,,,,,,,,,,225.16220531755243,227.16271258238703,225.16220531755243,227.16271258238703,2,0.40535965262097307,225.16220531755243,227.16271258238703,227.179375812324,None,229.16343600235996,231.16397467968636,229.16343600235996,230.16358124619,230.18024820831488,231.16397467968636,231.18046622956172,None,,,,,,,,,,,,,,,,,,,,,,,,,015,001,2020_Feb_07_0946,Experiment1,3.1.2,59.83357866192902,
1,0,22,22,24,,,,,,,,,,,,,,,,,,,,,,,,,,,,,,,,,,,,,,,,,,,,,,,,,,,,,,,,,,,015,001,2020_Feb_07_0946,Experiment1,3.1.2,59.83357866192902,
2,0,23,23,15,,,,,0,0,0,0,,,,,,,,,,,,,,,,,,,,,,,,,,,233.16446266160347,235.1652367769857,233.16446266160347,235.1652367769857,1,0.3549217907129787,233.16446266160347,235.1652367769857,235.1817463657062,None,237.16572351485956,239.16626872346387,237.16572351485956,238.16605661151698,238.18272232956951,239.16626872346387,239.18309057087754,None,,,,,,,015,001,2020_Feb_07_0946,Experiment1,3.1.2,59.83357866192902,
2,0,23,23,15,,,,,,,,,,,,,,,,,,,,,,,,,,,,,,,,,,,,,,,,,,,,,,,,,,,,,,,,,,,015,001,2020_Feb_07_0946,Experiment1,3.1.2,59.83357866192902,
2,0,24,24,11,,,,,0,0,0,0,,,,,,,,,,,,,,,,,,,,,,,,,,,241.16683756920975,243.16749163292116,241.16683756920975,243.16749163292116,1,0.368499755684752,241.16683756920975,243.16749163292116,243.18403418920934,None,245.16807789547602,247.1684899898537,245.16807789547602,246.16824335526326,246.1850372113404,247.1684899898537,247.1853628436511,None,,,,,,,015,001,2020_Feb_07_0946,Experiment1,3.1.2,59.83357866192902,
2,0,24,24,11,,,,,,,,,,,,,,,,,,,,,,,,,,,,,,,,,,,,,,,,,,,,,,,,,,,,,,,,,,,015,001,2020_Feb_07_0946,Experiment1,3.1.2,59.83357866192902,
,,,,,,,,,,,,,,,,,,,,,,,,,,,,,,,,,,,,,,,,,,,,,,,,,,,,,,,,,249.1690886929573,None,space,12.237710335291922,249.1690886929573,None,015,001,2020_Feb_07_0946,Experiment1,3.1.2,59.83357866192902,
