selectBlock,alltrials.thisRepN,alltrials.thisTrialN,alltrials.thisN,alltrials.thisIndex,Reward.thisRepN,Reward.thisTrialN,Reward.thisN,Reward.thisIndex,Loss.thisRepN,Loss.thisTrialN,Loss.thisN,Loss.thisIndex,Welcome.started,Welcome.stopped,response1.keys,response1.rt,response1.started,response1.stopped,firstTrialITI.started,firstTrialITI.stopped,rectangle.started,rectangle.stopped,text1.started,text1.stopped,response3.keys,response3.started,response3.stopped,ISI2.started,ISI2.stopped,rectangle2_2.started,rectangle2_2.stopped,feedback2_2.started,feedback2_2.stopped,arrow2_2.started,arrow2_2.stopped,ITI2_2.started,ITI2_2.stopped,response3.rt,polygon.started,polygon.stopped,text.started,text.stopped,response2.keys,response2.rt,response2.started,response2.stopped,ISI.started,ISI.stopped,polygon2_2.started,polygon2_2.stopped,feedback1_2.started,feedback1_2.stopped,arrow1_2.started,arrow1_2.stopped,ITI_2.started,ITI_2.stopped,Finished.started,Finished.stopped,key_resp_2.keys,key_resp_2.rt,key_resp_2.started,key_resp_2.stopped,participant,session,date,expName,psychopyVersion,frameRate,
,,,,,,,,,,,,,17.957345694448122,None,space,23.715423774991905,17.957345694448122,None,,,,,,,,,,,,,,,,,,,,,,,,,,,,,,,,,,,,,,,,,,,,,016,001,2020_Feb_14_1007,Experiment1,3.1.2,59.95860093540189,
2,0,0,0,9,,,,,0,0,0,0,,,,,,,41.696321647750665,None,47.7482094671509,49.74886696001931,47.7482094671509,49.74886696001931,None,47.7482094671509,49.74886696001931,49.76549058174123,None,51.749550267413724,53.749879635884554,51.749550267413724,52.749767980284105,52.76643949883737,53.749879635884554,53.7666609439284,None,,,,,,,,,,,,,,,,,,,,,,,,,,016,001,2020_Feb_14_1007,Experiment1,3.1.2,59.95860093540189,
2,0,0,0,9,,,,,,,,,,,,,,,,,,,,,,,,,,,,,,,,,,,,,,,,,,,,,,,,,,,,,,,,,,,016,001,2020_Feb_14_1007,Experiment1,3.1.2,59.95860093540189,
2,0,1,1,10,,,,,0,0,0,0,,,,,,,,,55.750518778668265,57.75126304566629,55.750518778668265,57.75126304566629,2,55.750518778668265,57.75126304566629,57.76785929777043,None,59.751950707317974,61.75249996578805,59.751950707317974,60.75206765023131,60.7688589108634,61.75249996578805,61.7691130128851,None,0.9542426640095982,,,,,,,,,,,,,,,,,,,,,,,,,016,001,2020_Feb_14_1007,Experiment1,3.1.2,59.95860093540189,
2,0,1,1,10,,,,,,,,,,,,,,,,,,,,,,,,,,,,,,,,,,,,,,,,,,,,,,,,,,,,,,,,,,,016,001,2020_Feb_14_1007,Experiment1,3.1.2,59.95860093540189,
1,0,2,2,6,0,0,0,0,,,,,,,,,,,,,,,,,,,,,,,,,,,,,,,63.75314004162692,65.75352570442556,63.75314004162692,65.75352570442556,1,1.007286538751032,63.75314004162692,65.75352570442556,65.77019317974009,None,67.75434150565252,69.7547763093562,67.75434150565252,68.754622977292,68.77129045260654,69.7547763093562,69.77155139703245,None,,,,,,,016,001,2020_Feb_14_1007,Experiment1,3.1.2,59.95860093540189,
1,0,2,2,6,,,,,,,,,,,,,,,,,,,,,,,,,,,,,,,,,,,,,,,,,,,,,,,,,,,,,,,,,,,016,001,2020_Feb_14_1007,Experiment1,3.1.2,59.95860093540189,
1,0,3,3,19,0,0,0,0,,,,,,,,,,,,,,,,,,,,,,,,,,,,,,,71.75541794028686,73.7560122964228,71.75541794028686,73.7560122964228,2,0.34100273571766593,71.75541794028686,73.7560122964228,73.77262223333582,None,75.75671488695752,77.75721655961433,75.75671488695752,76.7569462846368,76.77360816162036,77.75721655961433,77.77392166815343,None,,,,,,,016,001,2020_Feb_14_1007,Experiment1,3.1.2,59.95860093540189,
1,0,3,3,19,,,,,,,,,,,,,,,,,,,,,,,,,,,,,,,,,,,,,,,,,,,,,,,,,,,,,,,,,,,016,001,2020_Feb_14_1007,Experiment1,3.1.2,59.95860093540189,
2,0,4,4,14,,,,,0,0,0,0,,,,,,,,,79.75789800089842,81.75851475035824,79.75789800089842,81.75851475035824,2,79.75789800089842,81.75851475035824,81.77538003336622,None,83.75916477878536,85.7597183915127,83.75916477878536,84.75936818480977,84.77617281923267,85.7597183915127,85.776349788694,None,0.5464925834553469,,,,,,,,,,,,,,,,,,,,,,,,,016,001,2020_Feb_14_1007,Experiment1,3.1.2,59.95860093540189,
2,0,4,4,14,,,,,,,,,,,,,,,,,,,,,,,,,,,,,,,,,,,,,,,,,,,,,,,,,,,,,,,,,,,016,001,2020_Feb_14_1007,Experiment1,3.1.2,59.95860093540189,
1,0,5,5,24,0,0,0,0,,,,,,,,,,,,,,,,,,,,,,,,,,,,,,,87.7602819568283,89.76083277039015,87.7602819568283,89.76083277039015,1,0.4800369738659356,87.7602819568283,89.76083277039015,89.77760474788238,None,91.76152074306037,93.76223484127513,91.76152074306037,92.76197109768373,92.7785626845116,93.76223484127513,93.77890822593872,None,,,,,,,016,001,2020_Feb_14_1007,Experiment1,3.1.2,59.95860093540189,
1,0,5,5,24,,,,,,,,,,,,,,,,,,,,,,,,,,,,,,,,,,,,,,,,,,,,,,,,,,,,,,,,,,,016,001,2020_Feb_14_1007,Experiment1,3.1.2,59.95860093540189,
1,0,6,6,12,0,0,0,0,,,,,,,,,,,,,,,,,,,,,,,,,,,,,,,95.76278005650602,97.76336850329244,95.76278005650602,97.76336850329244,2,0.7495188545567544,95.76278005650602,97.76336850329244,97.77998590464676,None,99.76454135362656,101.7644567566258,99.76454135362656,100.76426330318964,100.78092953443047,101.7644567566258,101.78117866015782,None,,,,,,,016,001,2020_Feb_14_1007,Experiment1,3.1.2,59.95860093540189,
1,0,6,6,12,,,,,,,,,,,,,,,,,,,,,,,,,,,,,,,,,,,,,,,,,,,,,,,,,,,,,,,,,,,016,001,2020_Feb_14_1007,Experiment1,3.1.2,59.95860093540189,
2,0,7,7,1,,,,,0,0,0,0,,,,,,,,,103.76519013798043,105.7656840351774,103.76519013798043,105.7656840351774,1,103.76519013798043,105.7656840351774,105.78231201115705,None,107.7829990507721,109.76694054945756,107.7829990507721,108.76660993691303,108.7832519087201,109.76694054945756,109.78357754497029,None,0.3628974970483796,,,,,,,,,,,,,,,,,,,,,,,,,016,001,2020_Feb_14_1007,Experiment1,3.1.2,59.95860093540189,
2,0,7,7,1,,,,,,,,,,,,,,,,,,,,,,,,,,,,,,,,,,,,,,,,,,,,,,,,,,,,,,,,,,,016,001,2020_Feb_14_1007,Experiment1,3.1.2,59.95860093540189,
2,0,8,8,21,,,,,0,0,0,0,,,,,,,,,111.76766677738942,113.76829658962151,111.76766677738942,113.76829658962151,2,111.76766677738942,113.76829658962151,113.78486951534614,None,115.76879235292881,117.76931393076256,115.76879235292881,116.76903743541698,116.78567660805857,117.76931393076256,117.78597860691161,None,1.2324041348024366,,,,,,,,,,,,,,,,,,,,,,,,,016,001,2020_Feb_14_1007,Experiment1,3.1.2,59.95860093540189,
2,0,8,8,21,,,,,,,,,,,,,,,,,,,,,,,,,,,,,,,,,,,,,,,,,,,,,,,,,,,,,,,,,,,016,001,2020_Feb_14_1007,Experiment1,3.1.2,59.95860093540189,
2,0,9,9,18,,,,,0,0,0,0,,,,,,,,,119.7700065687086,121.77057884253918,119.7700065687086,121.77057884253918,2,119.7700065687086,121.77057884253918,121.78730976560428,None,123.77116324608642,125.77188698587133,123.77116324608642,124.77145000503879,124.78821265197939,125.77188698587133,125.78838340107313,None,0.5179099937672618,,,,,,,,,,,,,,,,,,,,,,,,,016,001,2020_Feb_14_1007,Experiment1,3.1.2,59.95860093540189,
2,0,9,9,18,,,,,,,,,,,,,,,,,,,,,,,,,,,,,,,,,,,,,,,,,,,,,,,,,,,,,,,,,,,016,001,2020_Feb_14_1007,Experiment1,3.1.2,59.95860093540189,
1,0,10,10,20,0,0,0,0,,,,,,,,,,,,,,,,,,,,,,,,,,,,,,,127.77308844989693,129.77294475940244,127.77308844989693,129.77294475940244,None,,127.77308844989693,129.77294475940244,129.78964551368426,None,131.77376833608923,133.77430515382366,131.77376833608923,132.7738908773331,132.79063206400497,133.77430515382366,133.79082334031273,None,,,,,,,016,001,2020_Feb_14_1007,Experiment1,3.1.2,59.95860093540189,
1,0,10,10,20,,,,,,,,,,,,,,,,,,,,,,,,,,,,,,,,,,,,,,,,,,,,,,,,,,,,,,,,,,,016,001,2020_Feb_14_1007,Experiment1,3.1.2,59.95860093540189,
2,0,11,11,3,,,,,0,0,0,0,,,,,,,,,135.77481086971966,137.77536541550216,135.77481086971966,137.77536541550216,2,135.77481086971966,137.77536541550216,137.79211935392777,None,139.77602384142529,141.77658243044698,139.77602384142529,140.77631744278187,140.793111813598,141.77658243044698,141.79336280543566,None,0.9370508116958263,,,,,,,,,,,,,,,,,,,,,,,,,016,001,2020_Feb_14_1007,Experiment1,3.1.2,59.95860093540189,
2,0,11,11,3,,,,,,,,,,,,,,,,,,,,,,,,,,,,,,,,,,,,,,,,,,,,,,,,,,,,,,,,,,,016,001,2020_Feb_14_1007,Experiment1,3.1.2,59.95860093540189,
2,0,12,12,11,,,,,0,0,0,0,,,,,,,,,143.77722530545134,145.77788217628267,143.77722530545134,145.77788217628267,1,143.77722530545134,145.77788217628267,145.79467001571265,None,147.77853593693044,149.77897385081815,147.77853593693044,148.7787959483012,148.79550043480367,149.77897385081815,149.79569326620322,None,0.59857230120042,,,,,,,,,,,,,,,,,,,,,,,,,016,001,2020_Feb_14_1007,Experiment1,3.1.2,59.95860093540189,
2,0,12,12,11,,,,,,,,,,,,,,,,,,,,,,,,,,,,,,,,,,,,,,,,,,,,,,,,,,,,,,,,,,,016,001,2020_Feb_14_1007,Experiment1,3.1.2,59.95860093540189,
1,0,13,13,7,0,0,0,0,,,,,,,,,,,,,,,,,,,,,,,,,,,,,,,151.7796167258225,153.78064215344148,151.7796167258225,153.78064215344148,1,0.45197876117663327,151.7796167258225,153.78064215344148,153.79705521571623,None,155.78091460554788,157.7814629309628,155.78091460554788,156.78123806466965,156.7979245121055,157.7814629309628,157.79840348042035,None,,,,,,,016,001,2020_Feb_14_1007,Experiment1,3.1.2,59.95860093540189,
1,0,13,13,7,,,,,,,,,,,,,,,,,,,,,,,,,,,,,,,,,,,,,,,,,,,,,,,,,,,,,,,,,,,016,001,2020_Feb_14_1007,Experiment1,3.1.2,59.95860093540189,
1,0,14,14,2,0,0,0,0,,,,,,,,,,,,,,,,,,,,,,,,,,,,,,,159.78315082774452,161.78286500184777,159.78315082774452,161.78286500184777,2,0.4965396094357857,159.78315082774452,161.78286500184777,161.79954180771347,None,163.7833427260889,165.78387674465785,163.7833427260889,164.78356230506915,164.80025186268904,165.78387674465785,165.8005488852482,None,,,,,,,016,001,2020_Feb_14_1007,Experiment1,3.1.2,59.95860093540189,
1,0,14,14,2,,,,,,,,,,,,,,,,,,,,,,,,,,,,,,,,,,,,,,,,,,,,,,,,,,,,,,,,,,,016,001,2020_Feb_14_1007,Experiment1,3.1.2,59.95860093540189,
2,0,15,15,15,,,,,0,0,0,0,,,,,,,,,167.7844826084738,169.78514974291238,167.7844826084738,169.78514974291238,1,167.7844826084738,169.78514974291238,169.80189186263942,None,171.7857073988789,173.78636862396752,171.7857073988789,172.7860019332902,172.80267500693571,173.78636862396752,173.80318258894204,None,0.5269634279698039,,,,,,,,,,,,,,,,,,,,,,,,,016,001,2020_Feb_14_1007,Experiment1,3.1.2,59.95860093540189,
2,0,15,15,15,,,,,,,,,,,,,,,,,,,,,,,,,,,,,,,,,,,,,,,,,,,,,,,,,,,,,,,,,,,016,001,2020_Feb_14_1007,Experiment1,3.1.2,59.95860093540189,
1,0,16,16,13,0,0,0,0,,,,,,,,,,,,,,,,,,,,,,,,,,,,,,,175.78698444037218,177.7877103572855,175.78698444037218,177.7877103572855,2,0.4683902683591441,175.78698444037218,177.7877103572855,177.8042241895173,None,179.78822384864134,181.78878585886514,179.78822384864134,180.7884188571693,180.80518554734908,181.78878585886514,181.80549967591878,None,,,,,,,016,001,2020_Feb_14_1007,Experiment1,3.1.2,59.95860093540189,
1,0,16,16,13,,,,,,,,,,,,,,,,,,,,,,,,,,,,,,,,,,,,,,,,,,,,,,,,,,,,,,,,,,,016,001,2020_Feb_14_1007,Experiment1,3.1.2,59.95860093540189,
2,0,17,17,17,,,,,0,0,0,0,,,,,,,,,183.78936186491592,185.79001189334303,183.78936186491592,185.79001189334303,1,183.78936186491592,185.79001189334303,185.806667549959,None,187.79064885899788,189.79139125988604,187.79064885899788,188.79094712563028,188.80759345169463,189.79139125988604,189.80788923017963,None,1.2179442679935164,,,,,,,,,,,,,,,,,,,,,,,,,016,001,2020_Feb_14_1007,Experiment1,3.1.2,59.95860093540189,
2,0,17,17,17,,,,,,,,,,,,,,,,,,,,,,,,,,,,,,,,,,,,,,,,,,,,,,,,,,,,,,,,,,,016,001,2020_Feb_14_1007,Experiment1,3.1.2,59.95860093540189,
1,0,18,18,22,0,0,0,0,,,,,,,,,,,,,,,,,,,,,,,,,,,,,,,191.79190506225996,193.79242010870712,191.79190506225996,193.79242010870712,2,0.3514321152606499,191.79190506225996,193.79242010870712,193.80907327717614,None,195.79321507170243,197.7935447511918,195.79321507170243,196.79343744984817,196.80992422348027,197.7935447511918,197.81028593786368,None,,,,,,,016,001,2020_Feb_14_1007,Experiment1,3.1.2,59.95860093540189,
1,0,18,18,22,,,,,,,,,,,,,,,,,,,,,,,,,,,,,,,,,,,,,,,,,,,,,,,,,,,,,,,,,,,016,001,2020_Feb_14_1007,Experiment1,3.1.2,59.95860093540189,
1,0,19,19,0,0,0,0,0,,,,,,,,,,,,,,,,,,,,,,,,,,,,,,,199.79412106826112,201.79522704964256,199.79412106826112,201.79522704964256,2,1.0290534715250033,199.79412106826112,201.79522704964256,201.81158661675454,None,203.79561022429425,205.79615606156176,203.79561022429425,204.79577879625958,204.8123868670623,205.79615606156176,205.8126770472163,None,,,,,,,016,001,2020_Feb_14_1007,Experiment1,3.1.2,59.95860093540189,
1,0,19,19,0,,,,,,,,,,,,,,,,,,,,,,,,,,,,,,,,,,,,,,,,,,,,,,,,,,,,,,,,,,,016,001,2020_Feb_14_1007,Experiment1,3.1.2,59.95860093540189,
1,0,20,20,23,0,0,0,0,,,,,,,,,,,,,,,,,,,,,,,,,,,,,,,207.79666022236597,209.79728941256099,207.79666022236597,209.79728941256099,2,0.37858339833610444,207.79666022236597,209.79728941256099,209.81401069405638,None,211.79779139623633,213.7983773548758,211.79779139623633,212.79835216238644,212.814795704463,213.7983773548758,213.8151443560737,None,,,,,,,016,001,2020_Feb_14_1007,Experiment1,3.1.2,59.95860093540189,
1,0,20,20,23,,,,,,,,,,,,,,,,,,,,,,,,,,,,,,,,,,,,,,,,,,,,,,,,,,,,,,,,,,,016,001,2020_Feb_14_1007,Experiment1,3.1.2,59.95860093540189,
1,0,21,21,16,0,0,0,0,,,,,,,,,,,,,,,,,,,,,,,,,,,,,,,215.79911820067173,217.79973495013155,215.79911820067173,217.79973495013155,2,0.5839133826234502,215.79911820067173,217.79973495013155,217.81635359555912,None,219.80024719741323,221.80085897057916,219.80024719741323,220.80068822148496,220.8173423230087,221.80085897057916,221.81755972486098,None,,,,,,,016,001,2020_Feb_14_1007,Experiment1,3.1.2,59.95860093540189,
1,0,21,21,16,,,,,,,,,,,,,,,,,,,,,,,,,,,,,,,,,,,,,,,,,,,,,,,,,,,,,,,,,,,016,001,2020_Feb_14_1007,Experiment1,3.1.2,59.95860093540189,
2,0,22,22,8,,,,,0,0,0,0,,,,,,,,,223.80149313706852,225.80204177350151,223.80149313706852,225.80204177350151,2,223.80149313706852,225.80204177350151,225.8187359963972,None,227.8026778061012,229.80339034922417,227.8026778061012,228.80301930428914,228.81973094421437,229.80339034922417,229.82019591670178,None,0.6775358262079862,,,,,,,,,,,,,,,,,,,,,,,,,016,001,2020_Feb_14_1007,Experiment1,3.1.2,59.95860093540189,
2,0,22,22,8,,,,,,,,,,,,,,,,,,,,,,,,,,,,,,,,,,,,,,,,,,,,,,,,,,,,,,,,,,,016,001,2020_Feb_14_1007,Experiment1,3.1.2,59.95860093540189,
1,0,23,23,5,0,0,0,0,,,,,,,,,,,,,,,,,,,,,,,,,,,,,,,231.80401642923516,233.80459803361737,231.80401642923516,233.80459803361737,1,0.6669204576701304,231.80401642923516,233.80459803361737,233.82129412262339,None,235.80528165203032,237.80582375707718,235.80528165203032,236.80557711949723,236.8222004302006,237.80582375707718,237.82249372053866,None,,,,,,,016,001,2020_Feb_14_1007,Experiment1,3.1.2,59.95860093540189,
1,0,23,23,5,,,,,,,,,,,,,,,,,,,,,,,,,,,,,,,,,,,,,,,,,,,,,,,,,,,,,,,,,,,016,001,2020_Feb_14_1007,Experiment1,3.1.2,59.95860093540189,
1,0,24,24,4,0,0,0,0,,,,,,,,,,,,,,,,,,,,,,,,,,,,,,,239.8062647811489,241.80697234797753,239.8062647811489,241.80697234797753,1,0.8486096234064462,239.8062647811489,241.80697234797753,241.82367901160842,None,243.8242242268393,245.80820740198897,243.8242242268393,244.80792406423916,244.82456634706432,245.80820740198897,245.82485030685075,None,,,,,,,016,001,2020_Feb_14_1007,Experiment1,3.1.2,59.95860093540189,
1,0,24,24,4,,,,,,,,,,,,,,,,,,,,,,,,,,,,,,,,,,,,,,,,,,,,,,,,,,,,,,,,,,,016,001,2020_Feb_14_1007,Experiment1,3.1.2,59.95860093540189,
,,,,,,,,,,,,,,,,,,,,,,,,,,,,,,,,,,,,,,,,,,,,,,,,,,,,,,,,,247.8087834080402,None,space,11.797840848159467,247.8087834080402,None,016,001,2020_Feb_14_1007,Experiment1,3.1.2,59.95860093540189,
