choices,Type,typeCode,trials.thisRepN,trials.thisTrialN,trials.thisN,trials.thisIndex,text_3.started,text_3.stopped,key_resp.keys,key_resp.rt,key_resp.started,key_resp.stopped,Instructions.started,Instructions.stopped,key_resp_3.keys,key_resp_3.rt,key_resp_3.started,key_resp_3.stopped,text_4.started,text_4.stopped,key_resp_5.keys,key_resp_5.rt,key_resp_5.started,key_resp_5.stopped,text_5.started,text_5.stopped,key_resp_6.keys,key_resp_6.rt,key_resp_6.started,key_resp_6.stopped,text.started,text.stopped,rating.response,rating.rt,rating.started,rating.stopped,key_resp_2.keys,key_resp_2.started,key_resp_2.stopped,text_2.started,text_2.stopped,key_resp_4.keys,key_resp_4.rt,key_resp_4.started,key_resp_4.stopped,participant,session,date,expName,psychopyVersion,frameRate,
,,,,,,,12.962288932507363,None,space,24.409805356513516,12.962288932507363,None,,,,,,,,,,,,,,,,,,,,,,,,,,,,,,,,,,017,001,2020_Feb_21_1058,choiceText,3.1.2,59.9894957003395,
,,,,,,,,,,,,,37.402614653918135,None,space,0.7933018232097311,37.402614653918135,None,,,,,,,,,,,,,,,,,,,,,,,,,,,,017,001,2020_Feb_21_1058,choiceText,3.1.2,59.9894957003395,
,,,,,,,,,,,,,,,,,,,38.21946416202991,38.21946416202991,space,69.00753779706338,38.21946416202991,None,,,,,,,,,,,,,,,,,,,,,,017,001,2020_Feb_21_1058,choiceText,3.1.2,59.9894957003395,
,,,,,,,,,,,,,,,,,,,,,,,,,107.25679423425117,107.25679423425117,space,68.48920974738303,107.25679423425117,None,,,,,,,,,,,,,,,,017,001,2020_Feb_21_1058,choiceText,3.1.2,59.9894957003395,
Going out to dinner with friends,social,1,0,0,0,3,,,,,,,,,,,,,,,,,,,,,,,,,176.52945497771134,None,$.04,23.589,0.6854944681040251,None,None,176.52945497771134,None,,,,,,,017,001,2020_Feb_21_1058,choiceText,3.1.2,59.9894957003395,
"Getting ice cream
with friends",social,1,0,1,1,49,,,,,,,,,,,,,,,,,,,,,,,,,200.16778689643752,None,$.05,6.993,0.01635356112410591,None,None,200.16778689643752,None,,,,,,,017,001,2020_Feb_21_1058,choiceText,3.1.2,59.9894957003395,
"Cleaning up around 
the house",nonsocial,0,0,2,2,79,,,,,,,,,,,,,,,,,,,,,,,,,207.20300361121326,None,$.01,4.557,0.018077525850912934,None,None,207.20300361121326,None,,,,,,,017,001,2020_Feb_21_1058,choiceText,3.1.2,59.9894957003395,
Going to a coffee shop with friends,social,1,0,3,3,58,,,,,,,,,,,,,,,,,,,,,,,,,211.80453480788356,None,$0,3.557,0.015787511006237764,None,None,211.80453480788356,None,,,,,,,017,001,2020_Feb_21_1058,choiceText,3.1.2,59.9894957003395,
Direct messaging your crush on Snapchat,social Media,2,0,4,4,54,,,,,,,,,,,,,,,,,,,,,,,,,215.4055867280531,None,$.05,5.186,0.018699247930726415,None,None,215.4055867280531,None,,,,,,,017,001,2020_Feb_21_1058,choiceText,3.1.2,59.9894957003395,
"Watching a new 
episode of a television 
show",nonsocial,0,0,5,5,97,,,,,,,,,,,,,,,,,,,,,,,,,220.6407656232168,None,$.05,4.797,0.022116075729627482,None,None,220.6407656232168,None,,,,,,,017,001,2020_Feb_21_1058,choiceText,3.1.2,59.9894957003395,
Having a Tweet go viral,social Media,2,0,6,6,15,,,,,,,,,,,,,,,,,,,,,,,,,225.4756338750517,None,$0,3.296,0.014335996775571402,None,None,225.4756338750517,None,,,,,,,017,001,2020_Feb_21_1058,choiceText,3.1.2,59.9894957003395,
"Learning to drive 
with a family member",social,1,0,7,7,46,,,,,,,,,,,,,,,,,,,,,,,,,228.8262540264982,None,$.01,5.318,0.020844640080667887,None,None,228.8262540264982,None,,,,,,,017,001,2020_Feb_21_1058,choiceText,3.1.2,59.9894957003395,
Drawing a picture,nonsocial,0,0,8,8,70,,,,,,,,,,,,,,,,,,,,,,,,,234.1777926098116,None,$0,3.383,0.011023670536360441,None,None,234.1777926098116,None,,,,,,,017,001,2020_Feb_21_1058,choiceText,3.1.2,59.9894957003395,
Viewing videos and photos on Instagram's Explore page,social Media,2,0,9,9,39,,,,,,,,,,,,,,,,,,,,,,,,,237.62877313613217,None,$.05,4.858,0.026165511188082746,None,None,237.62877313613217,None,,,,,,,017,001,2020_Feb_21_1058,choiceText,3.1.2,59.9894957003395,
Make comments on your friend's Instagram post,social media,2,0,10,10,50,,,,,,,,,,,,,,,,,,,,,,,,,242.5301249073559,None,$.04,4.351,0.022061025801122014,None,None,242.5301249073559,None,,,,,,,017,001,2020_Feb_21_1058,choiceText,3.1.2,59.9894957003395,
Having a celebrity comment on your Facebook post,social Media,2,0,11,11,57,,,,,,,,,,,,,,,,,,,,,,,,,246.93349408742006,None,$.01,7.098,0.0244306608824445,None,None,246.93349408742006,None,,,,,,,017,001,2020_Feb_21_1058,choiceText,3.1.2,59.9894957003395,
"Getting a slice of pizza 
by yourself",nonsocial,0,0,12,12,72,,,,,,,,,,,,,,,,,,,,,,,,,254.1004123146381,None,$.05,5.559,0.025525128115532425,None,None,254.1004123146381,None,,,,,,,017,001,2020_Feb_21_1058,choiceText,3.1.2,59.9894957003395,
"Playing volleyball
with friends",social,1,0,13,13,16,,,,,,,,,,,,,,,,,,,,,,,,,259.70209870856615,None,$.05,2.89,0.01638186362970373,None,None,259.70209870856615,None,,,,,,,017,001,2020_Feb_21_1058,choiceText,3.1.2,59.9894957003395,
"Getting breakfast
by yourself",nonsocial,0,0,14,14,84,,,,,,,,,,,,,,,,,,,,,,,,,262.63620612061914,None,$.03,3.876,0.014273793465690687,None,None,262.63620612061914,None,,,,,,,017,001,2020_Feb_21_1058,choiceText,3.1.2,59.9894957003395,
"Playing a videogame 
at home",nonsocial,0,0,15,15,98,,,,,,,,,,,,,,,,,,,,,,,,,266.5541356958979,None,$.05,3.526,0.014168047839120845,None,None,266.5541356958979,None,,,,,,,017,001,2020_Feb_21_1058,choiceText,3.1.2,59.9894957003395,
"Going to a music
festival with friends",social,1,0,16,16,30,,,,,,,,,,,,,,,,,,,,,,,,,270.1217175702268,None,$.05,4.021,0.01734041663166863,None,None,270.1217175702268,None,,,,,,,017,001,2020_Feb_21_1058,choiceText,3.1.2,59.9894957003395,
"Playing icebreakers
with classmates",social,1,0,17,17,19,,,,,,,,,,,,,,,,,,,,,,,,,274.18962896658877,None,$.01,3.926,0.01673517842846195,None,None,274.18962896658877,None,,,,,,,017,001,2020_Feb_21_1058,choiceText,3.1.2,59.9894957003395,
"Going on a first date 
to the movies",social,1,0,18,18,20,,,,,,,,,,,,,,,,,,,,,,,,,278.157455859754,None,$.05,3.755,0.01701073909043771,None,None,278.157455859754,None,,,,,,,017,001,2020_Feb_21_1058,choiceText,3.1.2,59.9894957003395,
"Working on a group
project with classmates",social,1,0,19,19,42,,,,,,,,,,,,,,,,,,,,,,,,,281.95873059217865,None,$.03,4.136,0.019542724809980427,None,None,281.95873059217865,None,,,,,,,017,001,2020_Feb_21_1058,choiceText,3.1.2,59.9894957003395,
Doing your laundry,nonsocial,0,0,20,20,105,,,,,,,,,,,,,,,,,,,,,,,,,286.12635855916005,None,$.04,2.149,0.010947782498533343,None,None,286.12635855916005,None,,,,,,,017,001,2020_Feb_21_1058,choiceText,3.1.2,59.9894957003395,
Reading at the library,nonsocial,0,0,21,21,78,,,,,,,,,,,,,,,,,,,,,,,,,288.327117252928,None,$0,2.192,0.01544725890198606,None,None,288.327117252928,None,,,,,,,017,001,2020_Feb_21_1058,choiceText,3.1.2,59.9894957003395,
Listening to a podcast,nonsocial,0,0,22,22,102,,,,,,,,,,,,,,,,,,,,,,,,,290.5444618371812,None,$.01,3.231,0.01208174883367974,None,None,290.5444618371812,None,,,,,,,017,001,2020_Feb_21_1058,choiceText,3.1.2,59.9894957003395,
Viedochatting your friend over Snapchat,social Media,2,0,23,23,7,,,,,,,,,,,,,,,,,,,,,,,,,293.82875304446316,None,$0,3.44,0.01616695119491851,None,None,293.82875304446316,None,,,,,,,017,001,2020_Feb_21_1058,choiceText,3.1.2,59.9894957003395,
Looking at your friend's Snapchat stories,social Media,2,0,24,24,4,,,,,,,,,,,,,,,,,,,,,,,,,297.31318153445,None,$.04,4.22,0.017649567080752604,None,None,297.31318153445,None,,,,,,,017,001,2020_Feb_21_1058,choiceText,3.1.2,59.9894957003395,
Getting a lot of comments on your Instagram post,social Media,2,0,25,25,41,,,,,,,,,,,,,,,,,,,,,,,,,301.5811596127596,None,$.05,3.399,0.019870225235081307,None,None,301.5811596127596,None,,,,,,,017,001,2020_Feb_21_1058,choiceText,3.1.2,59.9894957003395,
"Putting together 
a puzzle",nonsocial,0,0,26,26,60,,,,,,,,,,,,,,,,,,,,,,,,,305.01582358892574,None,$.01,4.096,0.013113079707636643,None,None,305.01582358892574,None,,,,,,,017,001,2020_Feb_21_1058,choiceText,3.1.2,59.9894957003395,
"Listening to music
by yourself",nonsocial,0,0,27,27,82,,,,,,,,,,,,,,,,,,,,,,,,,309.1667813799372,None,$.04,2.991,0.014932215497992729,None,None,309.1667813799372,None,,,,,,,017,001,2020_Feb_21_1058,choiceText,3.1.2,59.9894957003395,
"Buying clothes 
for yourself",nonsocial,0,0,28,28,85,,,,,,,,,,,,,,,,,,,,,,,,,312.2009611655408,None,$.05,2.123,0.016322459468938177,None,None,312.2009611655408,None,,,,,,,017,001,2020_Feb_21_1058,choiceText,3.1.2,59.9894957003395,
"Teaching yourself a 
different language",nonsocial,0,0,29,29,66,,,,,,,,,,,,,,,,,,,,,,,,,314.3681988067542,None,$.03,3.839,0.016749796206568135,None,None,314.3681988067542,None,,,,,,,017,001,2020_Feb_21_1058,choiceText,3.1.2,59.9894957003395,
"Going on a hike 
by yourself",nonsocial,0,0,30,30,108,,,,,,,,,,,,,,,,,,,,,,,,,318.23824862849506,None,$0,2.727,0.014380472141965583,None,None,318.23824862849506,None,,,,,,,017,001,2020_Feb_21_1058,choiceText,3.1.2,59.9894957003395,
"Trying out a new 
recipe at home",nonsocial,0,0,31,31,68,,,,,,,,,,,,,,,,,,,,,,,,,321.0202369137455,None,$0,3.091,0.01577507034426162,None,None,321.0202369137455,None,,,,,,,017,001,2020_Feb_21_1058,choiceText,3.1.2,59.9894957003395,
Looking at your Twitter feed,social Media,2,0,32,32,48,,,,,,,,,,,,,,,,,,,,,,,,,324.13901071234295,None,$.01,3.645,0.013579293513885204,None,None,324.13901071234295,None,,,,,,,017,001,2020_Feb_21_1058,choiceText,3.1.2,59.9894957003395,
Taking a nap,nonsocial,0,0,33,33,74,,,,,,,,,,,,,,,,,,,,,,,,,327.8221666470208,None,$.05,3.534,0.0102710104893049,None,None,327.8221666470208,None,,,,,,,017,001,2020_Feb_21_1058,choiceText,3.1.2,59.9894957003395,
Getting 1 million subscribers on Youtube,social Media,2,0,34,34,23,,,,,,,,,,,,,,,,,,,,,,,,,331.4065984648846,None,$.03,3.603,0.01832260689116083,None,None,331.4065984648846,None,,,,,,,017,001,2020_Feb_21_1058,choiceText,3.1.2,59.9894957003395,
Shopping online,nonsocial,0,0,35,35,69,,,,,,,,,,,,,,,,,,,,,,,,,335.04097487515037,None,$.05,1.886,0.010472238196598482,None,None,335.04097487515037,None,,,,,,,017,001,2020_Feb_21_1058,choiceText,3.1.2,59.9894957003395,
"Getting likes on an
Instagram picture",social Media,2,0,36,36,17,,,,,,,,,,,,,,,,,,,,,,,,,336.9761248146733,None,$.05,2.612,0.02367893388509401,None,None,336.9761248146733,None,,,,,,,017,001,2020_Feb_21_1058,choiceText,3.1.2,59.9894957003395,
"Getting verified on 
Instagram",social Media,2,0,37,37,47,,,,,,,,,,,,,,,,,,,,,,,,,339.62651328989296,None,$.03,2.945,0.013522688501780067,None,None,339.62651328989296,None,,,,,,,017,001,2020_Feb_21_1058,choiceText,3.1.2,59.9894957003395,
Looking at your Facebook feed,social Media,2,0,38,38,55,,,,,,,,,,,,,,,,,,,,,,,,,342.62659975249335,None,$.04,3.675,0.014875610486342339,None,None,342.62659975249335,None,,,,,,,017,001,2020_Feb_21_1058,choiceText,3.1.2,59.9894957003395,
Watching videos on Youtube,nonsocial,0,0,39,39,14,,,,,,,,,,,,,,,,,,,,,,,,,346.3610494693594,None,$.04,2.559,0.03090167118489262,None,None,346.3610494693594,None,,,,,,,017,001,2020_Feb_21_1058,choiceText,3.1.2,59.9894957003395,
Studying for a test alone,nonsocial,0,0,40,40,99,,,,,,,,,,,,,,,,,,,,,,,,,348.9454470754026,None,$.02,3.746,0.01322473464824725,None,None,348.9454470754026,None,,,,,,,017,001,2020_Feb_21_1058,choiceText,3.1.2,59.9894957003395,
"Going to a farmer's
market by yourself",nonsocial,0,0,41,41,83,,,,,,,,,,,,,,,,,,,,,,,,,352.7462885617756,None,$0,4.005,0.016957555260887602,None,None,352.7462885617756,None,,,,,,,017,001,2020_Feb_21_1058,choiceText,3.1.2,59.9894957003395,
Snapchatting your friends,social Media,2,0,42,42,2,,,,,,,,,,,,,,,,,,,,,,,,,356.7809059476631,None,$.04,7.398,0.012259650299256464,None,None,356.7809059476631,None,,,,,,,017,001,2020_Feb_21_1058,choiceText,3.1.2,59.9894957003395,
Becoming "InstaFamous",social Media,2,0,43,43,36,,,,,,,,,,,,,,,,,,,,,,,,,364.2331404927063,None,$.01,3.707,0.01579870760178892,None,None,364.2331404927063,None,,,,,,,017,001,2020_Feb_21_1058,choiceText,3.1.2,59.9894957003395,
"Going sight-seeing
with family",social ,1,0,44,44,24,,,,,,,,,,,,,,,,,,,,,,,,,367.98410425523525,None,$.03,2.874,0.01571628821648119,None,None,367.98410425523525,None,,,,,,,017,001,2020_Feb_21_1058,choiceText,3.1.2,59.9894957003395,
"Going for a bicycle
ride alone",nonsocial,0,0,45,45,95,,,,,,,,,,,,,,,,,,,,,,,,,370.8873616248502,None,$0,2.994,0.014477820321644685,None,None,370.8873616248502,None,,,,,,,017,001,2020_Feb_21_1058,choiceText,3.1.2,59.9894957003395,
Writing journal entries,nonsocial,0,0,46,46,107,,,,,,,,,,,,,,,,,,,,,,,,,373.9190566992497,None,$0,1.664,0.0121943368239954,None,None,373.9190566992497,None,,,,,,,017,001,2020_Feb_21_1058,choiceText,3.1.2,59.9894957003395,
Playing with a pet,nonsocial,0,0,47,47,87,,,,,,,,,,,,,,,,,,,,,,,,,375.6198087061621,None,$.03,3.13,0.01266023961306928,None,None,375.6198087061621,None,,,,,,,017,001,2020_Feb_21_1058,choiceText,3.1.2,59.9894957003395,
"Going grocery shopping 
alone",nonsocial,0,0,48,48,89,,,,,,,,,,,,,,,,,,,,,,,,,378.82068216503603,None,$0,2.759,0.030526896244282398,None,None,378.82068216503603,None,,,,,,,017,001,2020_Feb_21_1058,choiceText,3.1.2,59.9894957003395,
"Playing videogames 
with friends",social,1,0,49,49,31,,,,,,,,,,,,,,,,,,,,,,,,,381.6214931717873,None,$.05,1.89,0.015410869966217433,None,None,381.6214931717873,None,,,,,,,017,001,2020_Feb_21_1058,choiceText,3.1.2,59.9894957003395,
"Getting a slice of 
pizza with a friend",social,1,0,50,50,10,,,,,,,,,,,,,,,,,,,,,,,,,383.5553722976938,None,$.04,3.292,0.017854215969236975,None,None,383.5553722976938,None,,,,,,,017,001,2020_Feb_21_1058,choiceText,3.1.2,59.9894957003395,
"Watching Netflix at home 
by yourself",nonsocial,0,0,51,51,76,,,,,,,,,,,,,,,,,,,,,,,,,386.9063917943881,None,$.05,2.473,0.0284076294847182,None,None,386.9063917943881,None,,,,,,,017,001,2020_Feb_21_1058,choiceText,3.1.2,59.9894957003395,
Uploading photos on social media,social Media,2,0,52,52,5,,,,,,,,,,,,,,,,,,,,,,,,,389.4237992350859,None,$.04,3.021,0.017207301548751275,None,None,389.4237992350859,None,,,,,,,017,001,2020_Feb_21_1058,choiceText,3.1.2,59.9894957003395,
"Going to the beach 
alone",nonsocial,0,0,53,53,80,,,,,,,,,,,,,,,,,,,,,,,,,392.4746569720737,None,$0,2.031,0.012331184105278226,None,None,392.4746569720737,None,,,,,,,017,001,2020_Feb_21_1058,choiceText,3.1.2,59.9894957003395,
Watching the news,nonsocial,0,0,54,54,104,,,,,,,,,,,,,,,,,,,,,,,,,394.5419808581755,None,$.02,2.632,0.011657522261884878,None,None,394.5419808581755,None,,,,,,,017,001,2020_Feb_21_1058,choiceText,3.1.2,59.9894957003395,
"Watching YouTube
videos",nonsocial,0,0,55,55,81,,,,,,,,,,,,,,,,,,,,,,,,,397.2113733775436,None,$.05,3.811,0.013587379943601263,None,None,397.2113733775436,None,,,,,,,017,001,2020_Feb_21_1058,choiceText,3.1.2,59.9894957003395,
Taking classes with a friend,social,1,0,56,56,25,,,,,,,,,,,,,,,,,,,,,,,,,401.07747297810465,None,$.05,2.409,0.015507596112911415,None,None,401.07747297810465,None,,,,,,,017,001,2020_Feb_21_1058,choiceText,3.1.2,59.9894957003395,
Reading a book,nonsocial,0,0,57,57,92,,,,,,,,,,,,,,,,,,,,,,,,,403.51128507994554,None,$0,2.466,0.01075899545367065,None,None,403.51128507994554,None,,,,,,,017,001,2020_Feb_21_1058,choiceText,3.1.2,59.9894957003395,
"Going on a weekend
getaway with family",social,1,0,58,58,18,,,,,,,,,,,,,,,,,,,,,,,,,406.0289133423921,None,$.04,3.372,0.016326813700743514,None,None,406.0289133423921,None,,,,,,,017,001,2020_Feb_21_1058,choiceText,3.1.2,59.9894957003395,
Putting gas in a car,nonsocial,0,0,59,59,90,,,,,,,,,,,,,,,,,,,,,,,,,409.4297598672333,None,$.02,4.767,0.011520363963882119,None,None,409.4297598672333,None,,,,,,,017,001,2020_Feb_21_1058,choiceText,3.1.2,59.9894957003395,
"Going to an amusement 
park with a friend",social,1,0,60,60,27,,,,,,,,,,,,,,,,,,,,,,,,,414.25039164758846,None,$.05,2.093,0.0250530049952431,None,None,414.25039164758846,None,,,,,,,017,001,2020_Feb_21_1058,choiceText,3.1.2,59.9894957003395,
Posting Instagram stories,social Media,2,0,61,61,33,,,,,,,,,,,,,,,,,,,,,,,,,416.3839906719918,None,$.03,3.113,0.013658913749623025,None,None,416.3839906719918,None,,,,,,,017,001,2020_Feb_21_1058,choiceText,3.1.2,59.9894957003395,
Sharing Youtube videos with your partner,social Media,2,0,62,62,9,,,,,,,,,,,,,,,,,,,,,,,,,419.5494844434188,None,$0,2.999,0.023466820598969207,None,None,419.5494844434188,None,,,,,,,017,001,2020_Feb_21_1058,choiceText,3.1.2,59.9894957003395,
"Getting tagged in 
Instagram pictures",social Media,2,0,63,63,11,,,,,,,,,,,,,,,,,,,,,,,,,422.600273134733,None,$.05,2.335,0.020640302208448702,None,None,422.600273134733,None,,,,,,,017,001,2020_Feb_21_1058,choiceText,3.1.2,59.9894957003395,
"Sleeping over at 
a friend's house",social,1,0,64,64,26,,,,,,,,,,,,,,,,,,,,,,,,,424.98452319452554,None,$.03,3.188,0.016742642825647636,None,None,424.98452319452554,None,,,,,,,017,001,2020_Feb_21_1058,choiceText,3.1.2,59.9894957003395,
"Buying coffee on 
the way to work",nonsocial,0,0,65,65,63,,,,,,,,,,,,,,,,,,,,,,,,,428.2186153978696,None,$0,1.988,0.017496235921953485,None,None,428.2186153978696,None,,,,,,,017,001,2020_Feb_21_1058,choiceText,3.1.2,59.9894957003395,
Going on a blind date,social,1,0,66,66,34,,,,,,,,,,,,,,,,,,,,,,,,,430.2359719873616,None,$0,3.631,0.011946145618367154,None,None,430.2359719873616,None,,,,,,,017,001,2020_Feb_21_1058,choiceText,3.1.2,59.9894957003395,
"Going to a bar 
with friends",social,1,0,67,67,35,,,,,,,,,,,,,,,,,,,,,,,,,433.9051060519778,None,$.03,2.645,0.013634032426125486,None,None,433.9051060519778,None,,,,,,,017,001,2020_Feb_21_1058,choiceText,3.1.2,59.9894957003395,
"Trying to solve a 
Rubik’s cube",nonsocial,0,0,68,68,73,,,,,,,,,,,,,,,,,,,,,,,,,436.60461026049825,None,$.01,2.734,0.01899378060215895,None,None,436.60461026049825,None,,,,,,,017,001,2020_Feb_21_1058,choiceText,3.1.2,59.9894957003395,
Having hundreds of friends on Facebook,social Media,2,0,69,69,59,,,,,,,,,,,,,,,,,,,,,,,,,439.3887249658892,None,$.01,2.904,0.01733917256569839,None,None,439.3887249658892,None,,,,,,,017,001,2020_Feb_21_1058,choiceText,3.1.2,59.9894957003395,
"Painting your bedroom
a new color",nonsocial,0,0,70,70,101,,,,,,,,,,,,,,,,,,,,,,,,,442.3395591589242,None,$0,4.209,0.015572598570997798,None,None,442.3395591589242,None,,,,,,,017,001,2020_Feb_21_1058,choiceText,3.1.2,59.9894957003395,
Make a post on Twitter,social Media,2,0,71,71,53,,,,,,,,,,,,,,,,,,,,,,,,,446.57420155054206,None,$0,1.93,0.012604567651123944,None,None,446.57420155054206,None,,,,,,,017,001,2020_Feb_21_1058,choiceText,3.1.2,59.9894957003395,
"Planting flowers 
in a garden",nonsocial,0,0,72,72,67,,,,,,,,,,,,,,,,,,,,,,,,,448.5436024984583,None,$0,1.659,0.014115797059275792,None,None,448.5436024984583,None,,,,,,,017,001,2020_Feb_21_1058,choiceText,3.1.2,59.9894957003395,
"Celebrating holidays 
with family",social,1,0,73,73,37,,,,,,,,,,,,,,,,,,,,,,,,,450.25873559954516,None,$.05,2.52,0.01698865691514584,None,None,450.25873559954516,None,,,,,,,017,001,2020_Feb_21_1058,choiceText,3.1.2,59.9894957003395,
"Rearranging furniture 
in your house",nonsocial,0,0,74,74,100,,,,,,,,,,,,,,,,,,,,,,,,,452.82597815481995,None,$.04,2.958,0.015255983725182887,None,None,452.82597815481995,None,,,,,,,017,001,2020_Feb_21_1058,choiceText,3.1.2,59.9894957003395,
"Listening to music
by yourself",nonsocial,0,0,75,75,109,,,,,,,,,,,,,,,,,,,,,,,,,455.8269640772778,None,$.05,1.592,0.014736275073119032,None,None,455.8269640772778,None,,,,,,,017,001,2020_Feb_21_1058,choiceText,3.1.2,59.9894957003395,
Practicing photography,nonsocial,0,0,76,76,65,,,,,,,,,,,,,,,,,,,,,,,,,457.4456490806506,None,$0,3.144,0.014697398004500428,None,None,457.4456490806506,None,,,,,,,017,001,2020_Feb_21_1058,choiceText,3.1.2,59.9894957003395,
Running a marathon,nonsocial,0,0,77,77,93,,,,,,,,,,,,,,,,,,,,,,,,,460.6283489095604,None,$0,1.931,0.01197880235622506,None,None,460.6283489095604,None,,,,,,,017,001,2020_Feb_21_1058,choiceText,3.1.2,59.9894957003395,
"Going on vacation 
by yourself",nonsocial,0,0,78,78,94,,,,,,,,,,,,,,,,,,,,,,,,,462.5963533931749,None,$0,2.478,0.013519889353119652,None,None,462.5963533931749,None,,,,,,,017,001,2020_Feb_21_1058,choiceText,3.1.2,59.9894957003395,
"Taking a family member
 on a shopping trip",social,1,0,79,79,0,,,,,,,,,,,,,,,,,,,,,,,,,465.1296416498435,None,$.02,4.718,0.018987560270943504,None,None,465.1296416498435,None,,,,,,,017,001,2020_Feb_21_1058,choiceText,3.1.2,59.9894957003395,
Going to the zoo with friends,social,1,0,80,80,52,,,,,,,,,,,,,,,,,,,,,,,,,469.8823595457043,None,$.05,2.028,0.014070388643176557,None,None,469.8823595457043,None,,,,,,,017,001,2020_Feb_21_1058,choiceText,3.1.2,59.9894957003395,
Getting a haircut,nonsocial,0,0,81,81,91,,,,,,,,,,,,,,,,,,,,,,,,,471.9485146316183,None,$.03,5.104,0.010432117062009638,None,None,471.9485146316183,None,,,,,,,017,001,2020_Feb_21_1058,choiceText,3.1.2,59.9894957003395,
"Taking your friend 
on a cruise",social,1,0,82,82,6,,,,,,,,,,,,,,,,,,,,,,,,,477.09988358650617,None,$.04,3.752,0.01979838041233961,None,None,477.09988358650617,None,,,,,,,017,001,2020_Feb_21_1058,choiceText,3.1.2,59.9894957003395,
Direct messaging friends on Instagrams,social Media,2,0,83,83,28,,,,,,,,,,,,,,,,,,,,,,,,,480.90105195127126,None,$.03,3.755,0.016449043203920155,None,None,480.90105195127126,None,,,,,,,017,001,2020_Feb_21_1058,choiceText,3.1.2,59.9894957003395,
"Taking your friend 
to the spa",social,1,0,84,84,1,,,,,,,,,,,,,,,,,,,,,,,,,484.7021714864386,None,$.02,3.43,0.014345016254992515,None,None,484.7021714864386,None,,,,,,,017,001,2020_Feb_21_1058,choiceText,3.1.2,59.9894957003395,
"Looking through old 
photo albums",nonsocial,0,0,85,85,106,,,,,,,,,,,,,,,,,,,,,,,,,488.1722487398388,None,$.05,2.894,0.02449566334098563,None,None,488.1722487398388,None,,,,,,,017,001,2020_Feb_21_1058,choiceText,3.1.2,59.9894957003395,
Exercising from home,nonsocial,0,0,86,86,71,,,,,,,,,,,,,,,,,,,,,,,,,491.10408262092415,None,$.04,2.079,0.013248682922949229,None,None,491.10408262092415,None,,,,,,,017,001,2020_Feb_21_1058,choiceText,3.1.2,59.9894957003395,
"Walking around Central 
Park with family",social,1,0,87,87,13,,,,,,,,,,,,,,,,,,,,,,,,,493.2379304585661,None,$.03,3.569,0.01814097322676389,None,None,493.2379304585661,None,,,,,,,017,001,2020_Feb_21_1058,choiceText,3.1.2,59.9894957003395,
"Learning how to 
perform card tricks",nonsocial,0,0,88,88,103,,,,,,,,,,,,,,,,,,,,,,,,,496.8557822486064,None,$0,2.236,0.018360239893354446,None,None,496.8557822486064,None,,,,,,,017,001,2020_Feb_21_1058,choiceText,3.1.2,59.9894957003395,
"Going for a walk 
in the park",nonsocial,0,0,89,89,64,,,,,,,,,,,,,,,,,,,,,,,,,499.13982339858376,None,$.03,2.776,0.014715125947986962,None,None,499.13982339858376,None,,,,,,,017,001,2020_Feb_21_1058,choiceText,3.1.2,59.9894957003395,
Making cookies with your partner,social,1,0,90,90,8,,,,,,,,,,,,,,,,,,,,,,,,,501.95724673222685,None,$.04,2.341,0.01572810684547221,None,None,501.95724673222685,None,,,,,,,017,001,2020_Feb_21_1058,choiceText,3.1.2,59.9894957003395,
"Driving to school
by yourself",nonsocial,0,0,91,91,88,,,,,,,,,,,,,,,,,,,,,,,,,504.3270789978924,None,$.04,3.426,0.01424175876127265,None,None,504.3270789978924,None,,,,,,,017,001,2020_Feb_21_1058,choiceText,3.1.2,59.9894957003395,
Snapchat your friends to keep your "Snapstreaks",social Media,2,0,92,92,51,,,,,,,,,,,,,,,,,,,,,,,,,507.8091394078806,None,$.04,4.565,0.02064527847323916,None,None,507.8091394078806,None,,,,,,,017,001,2020_Feb_21_1058,choiceText,3.1.2,59.9894957003395,
"Talking to a friend 
over Skype",social Media,2,0,93,93,12,,,,,,,,,,,,,,,,,,,,,,,,,512.4270045716326,None,$0,1.892,0.014628352330419148,None,None,512.4270045716326,None,,,,,,,017,001,2020_Feb_21_1058,choiceText,3.1.2,59.9894957003395,
"Going dancing with
a significant other",social,1,0,94,94,21,,,,,,,,,,,,,,,,,,,,,,,,,514.3611437073732,None,$.05,3.373,0.016440645757484162,None,None,514.3611437073732,None,,,,,,,017,001,2020_Feb_21_1058,choiceText,3.1.2,59.9894957003395,
"Getting likes on a 
Facebook status",social Media,2,0,95,95,45,,,,,,,,,,,,,,,,,,,,,,,,,517.7785919845437,None,$.02,2.688,0.017165936347737443,None,None,517.7785919845437,None,,,,,,,017,001,2020_Feb_21_1058,choiceText,3.1.2,59.9894957003395,
"Going to a museum 
alone",nonsocial,0,0,96,96,96,,,,,,,,,,,,,,,,,,,,,,,,,520.4959864869529,None,$0,2.014,0.012356065429230512,None,None,520.4959864869529,None,,,,,,,017,001,2020_Feb_21_1058,choiceText,3.1.2,59.9894957003395,
"Taking an online
class",nonsocial,0,0,97,97,86,,,,,,,,,,,,,,,,,,,,,,,,,522.5466473504657,None,$0,2.797,0.0123849899682682,None,None,522.5466473504657,None,,,,,,,017,001,2020_Feb_21_1058,choiceText,3.1.2,59.9894957003395,
"Going to the movies 
by yourself",nonsocial,0,0,98,98,77,,,,,,,,,,,,,,,,,,,,,,,,,525.3975279782712,None,$0,1.824,0.015369504765203601,None,None,525.3975279782712,None,,,,,,,017,001,2020_Feb_21_1058,choiceText,3.1.2,59.9894957003395,
"Taking an art class 
with friends",social,1,0,99,99,38,,,,,,,,,,,,,,,,,,,,,,,,,527.2650147126378,None,$.03,2.122,0.01733823951553859,None,None,527.2650147126378,None,,,,,,,017,001,2020_Feb_21_1058,choiceText,3.1.2,59.9894957003395,
"Going to a karaoke
bar with friends",social,1,0,100,100,43,,,,,,,,,,,,,,,,,,,,,,,,,529.4320194024563,None,$.04,2.406,0.016107236017433024,None,None,529.4320194024563,None,,,,,,,017,001,2020_Feb_21_1058,choiceText,3.1.2,59.9894957003395,
"Taking a road trip 
by yourself",nonsocial,0,0,101,101,75,,,,,,,,,,,,,,,,,,,,,,,,,531.8829837559169,None,$0,2.273,0.016091996206796466,None,None,531.8829837559169,None,,,,,,,017,001,2020_Feb_21_1058,choiceText,3.1.2,59.9894957003395,
"Getting retweeted by 
a celebrity",social Media,2,0,102,102,29,,,,,,,,,,,,,,,,,,,,,,,,,534.2001982419479,None,$.04,2.725,0.015134376254991366,None,None,534.2001982419479,None,,,,,,,017,001,2020_Feb_21_1058,choiceText,3.1.2,59.9894957003395,
"Going to a street fair
with friends",social,1,0,103,103,40,,,,,,,,,,,,,,,,,,,,,,,,,536.9531466010712,None,$.05,2.811,0.014700197153160843,None,None,536.9531466010712,None,,,,,,,017,001,2020_Feb_21_1058,choiceText,3.1.2,59.9894957003395,
"Going to a comedy show 
with a significant other",social,1,0,104,104,56,,,,,,,,,,,,,,,,,,,,,,,,,539.8185856024843,None,$.05,3.185,0.020049681783802953,None,None,539.8185856024843,None,,,,,,,017,001,2020_Feb_21_1058,choiceText,3.1.2,59.9894957003395,
"Getting drinks 
with co-workers",social,1,0,105,105,44,,,,,,,,,,,,,,,,,,,,,,,,,543.0695523196705,None,$.04,2.859,0.02973473709607788,None,None,543.0695523196705,None,,,,,,,017,001,2020_Feb_21_1058,choiceText,3.1.2,59.9894957003395,
"Practicing an
 instrument",nonsocial,0,0,106,106,61,,,,,,,,,,,,,,,,,,,,,,,,,545.9559221127479,None,$0,2.06,0.014466001692653663,None,None,545.9559221127479,None,,,,,,,017,001,2020_Feb_21_1058,choiceText,3.1.2,59.9894957003395,
"Playing ping-pong
with friends",social,1,0,107,107,22,,,,,,,,,,,,,,,,,,,,,,,,,548.0709749093621,None,$.05,2.058,0.014944034127438499,None,None,548.0709749093621,None,,,,,,,017,001,2020_Feb_21_1058,choiceText,3.1.2,59.9894957003395,
"Watching a football 
game from home",nonsocial,0,0,108,108,62,,,,,,,,,,,,,,,,,,,,,,,,,550.1716366592718,None,$.04,2.123,0.017435276678952505,None,None,550.1716366592718,None,,,,,,,017,001,2020_Feb_21_1058,choiceText,3.1.2,59.9894957003395,
Calling a family member over Skype,social Media,2,0,109,109,32,,,,,,,,,,,,,,,,,,,,,,,,,552.3554614350369,None,$0,2.709,0.025481274782123364,None,None,552.3554614350369,None,,,,,,,017,001,2020_Feb_21_1058,choiceText,3.1.2,59.9894957003395,
,,,,,,,,,,,,,,,,,,,,,,,,,,,,,,,,,,,,,,,,555.0731473599517,556.0733607173038,space,13.650651284202922,555.0731473599517,None,017,001,2020_Feb_21_1058,choiceText,3.1.2,59.9894957003395,
