choices	Type	typeCode	trials.thisRepN	trials.thisTrialN	trials.thisN	trials.thisIndex	text_3.started	text_3.stopped	key_resp.keys	key_resp.rt	key_resp.started	key_resp.stopped	Instructions.started	Instructions.stopped	key_resp_3.keys	key_resp_3.rt	key_resp_3.started	key_resp_3.stopped	text_4.started	text_4.stopped	key_resp_5.keys	key_resp_5.rt	key_resp_5.started	key_resp_5.stopped	text_5.started	text_5.stopped	key_resp_6.keys	key_resp_6.rt	key_resp_6.started	key_resp_6.stopped	text.started	text.stopped	rating.response	rating.rt	rating.started	rating.stopped	key_resp_2.keys	key_resp_2.started	key_resp_2.stopped	text_2.started	text_2.stopped	key_resp_4.keys	key_resp_4.rt	key_resp_4.started	key_resp_4.stopped	participant	session	date	expName	psychopyVersion	frameRate							12.96228893	None	space	24.40980536	12.96228893	None																																		17	1	2020_Feb_21_1058	choiceText	3.1.2	59.9894957													37.40261465	None	space	0.793301823	37.40261465	None																												17	1	2020_Feb_21_1058	choiceText	3.1.2	59.9894957																			38.21946416	38.21946416	space	69.0075378	38.21946416	None																						17	1	2020_Feb_21_1058	choiceText	3.1.2	59.9894957																									107.2567942	107.2567942	space	68.48920975	107.2567942	None																17	1	2020_Feb_21_1058	choiceText	3.1.2	59.9894957Going out to dinner with friends	S	1	0	0	0	3																									176.529455	None	$0.04 	23.589	0.685494468	None	None	176.529455	None							17	1	2020_Feb_21_1058	choiceText	3.1.2	59.9894957"Getting ice cream
with friends"	S	1	0	1	1	49																									200.1677869	None	$0.05 	6.993	0.016353561	None	None	200.1677869	None							17	1	2020_Feb_21_1058	choiceText	3.1.2	59.9894957"Cleaning up around 
the house"	NS	0	0	2	2	79																									207.2030036	None	$0.01 	4.557	0.018077526	None	None	207.2030036	None							17	1	2020_Feb_21_1058	choiceText	3.1.2	59.9894957Going to a coffee shop with friends	S	1	0	3	3	58																									211.8045348	None	$0 	3.557	0.015787511	None	None	211.8045348	None							17	1	2020_Feb_21_1058	choiceText	3.1.2	59.9894957Direct messaging your crush on Snapchat	SM	2	0	4	4	54																									215.4055867	None	$0.05 	5.186	0.018699248	None	None	215.4055867	None							17	1	2020_Feb_21_1058	choiceText	3.1.2	59.9894957"Watching a new 
episode of a television 
show"	NS	0	0	5	5	97																									220.6407656	None	$0.05 	4.797	0.022116076	None	None	220.6407656	None							17	1	2020_Feb_21_1058	choiceText	3.1.2	59.9894957Having a Tweet go viral	SM	2	0	6	6	15																									225.4756339	None	$0 	3.296	0.014335997	None	None	225.4756339	None							17	1	2020_Feb_21_1058	choiceText	3.1.2	59.9894957"Learning to drive 
with a family member"	S	1	0	7	7	46																									228.826254	None	$0.01 	5.318	0.02084464	None	None	228.826254	None							17	1	2020_Feb_21_1058	choiceText	3.1.2	59.9894957Drawing a picture	NS	0	0	8	8	70																									234.1777926	None	$0 	3.383	0.011023671	None	None	234.1777926	None							17	1	2020_Feb_21_1058	choiceText	3.1.2	59.9894957Viewing videos and photos on Instagram's Explore page	SM	2	0	9	9	39																									237.6287731	None	$0.05 	4.858	0.026165511	None	None	237.6287731	None							17	1	2020_Feb_21_1058	choiceText	3.1.2	59.9894957Make comments on your friend's Instagram post	SM	2	0	10	10	50																									242.5301249	None	$0.04 	4.351	0.022061026	None	None	242.5301249	None							17	1	2020_Feb_21_1058	choiceText	3.1.2	59.9894957Having a celebrity comment on your Facebook post	SM	2	0	11	11	57																									246.9334941	None	$0.01 	7.098	0.024430661	None	None	246.9334941	None							17	1	2020_Feb_21_1058	choiceText	3.1.2	59.9894957"Getting a slice of pizza 
by yourself"	NS	0	0	12	12	72																									254.1004123	None	$0.05 	5.559	0.025525128	None	None	254.1004123	None							17	1	2020_Feb_21_1058	choiceText	3.1.2	59.9894957"Playing volleyball
with friends"	S	1	0	13	13	16																									259.7020987	None	$0.05 	2.89	0.016381864	None	None	259.7020987	None							17	1	2020_Feb_21_1058	choiceText	3.1.2	59.9894957"Getting breakfast
by yourself"	NS	0	0	14	14	84																									262.6362061	None	$0.03 	3.876	0.014273793	None	None	262.6362061	None							17	1	2020_Feb_21_1058	choiceText	3.1.2	59.9894957"Playing a videogame 
at home"	NS	0	0	15	15	98																									266.5541357	None	$0.05 	3.526	0.014168048	None	None	266.5541357	None							17	1	2020_Feb_21_1058	choiceText	3.1.2	59.9894957"Going to a music
festival with friends"	S	1	0	16	16	30																									270.1217176	None	$0.05 	4.021	0.017340417	None	None	270.1217176	None							17	1	2020_Feb_21_1058	choiceText	3.1.2	59.9894957"Playing icebreakers
with classmates"	S	1	0	17	17	19																									274.189629	None	$0.01 	3.926	0.016735178	None	None	274.189629	None							17	1	2020_Feb_21_1058	choiceText	3.1.2	59.9894957"Going on a first date 
to the movies"	S	1	0	18	18	20																									278.1574559	None	$0.05 	3.755	0.017010739	None	None	278.1574559	None							17	1	2020_Feb_21_1058	choiceText	3.1.2	59.9894957"Working on a group
project with classmates"	S	1	0	19	19	42																									281.9587306	None	$0.03 	4.136	0.019542725	None	None	281.9587306	None							17	1	2020_Feb_21_1058	choiceText	3.1.2	59.9894957Doing your laundry	NS	0	0	20	20	105																									286.1263586	None	$0.04 	2.149	0.010947782	None	None	286.1263586	None							17	1	2020_Feb_21_1058	choiceText	3.1.2	59.9894957Reading at the library	NS	0	0	21	21	78																									288.3271173	None	$0 	2.192	0.015447259	None	None	288.3271173	None							17	1	2020_Feb_21_1058	choiceText	3.1.2	59.9894957Listening to a podcast	NS	0	0	22	22	102																									290.5444618	None	$0.01 	3.231	0.012081749	None	None	290.5444618	None							17	1	2020_Feb_21_1058	choiceText	3.1.2	59.9894957Viedochatting your friend over Snapchat	SM	2	0	23	23	7																									293.828753	None	$0 	3.44	0.016166951	None	None	293.828753	None							17	1	2020_Feb_21_1058	choiceText	3.1.2	59.9894957Looking at your friend's Snapchat stories	SM	2	0	24	24	4																									297.3131815	None	$0.04 	4.22	0.017649567	None	None	297.3131815	None							17	1	2020_Feb_21_1058	choiceText	3.1.2	59.9894957Getting a lot of comments on your Instagram post	SM	2	0	25	25	41																									301.5811596	None	$0.05 	3.399	0.019870225	None	None	301.5811596	None							17	1	2020_Feb_21_1058	choiceText	3.1.2	59.9894957"Putting together 
a puzzle"	NS	0	0	26	26	60																									305.0158236	None	$0.01 	4.096	0.01311308	None	None	305.0158236	None							17	1	2020_Feb_21_1058	choiceText	3.1.2	59.9894957"Listening to music
by yourself"	NS	0	0	27	27	82																									309.1667814	None	$0.04 	2.991	0.014932215	None	None	309.1667814	None							17	1	2020_Feb_21_1058	choiceText	3.1.2	59.9894957"Buying clothes 
for yourself"	NS	0	0	28	28	85																									312.2009612	None	$0.05 	2.123	0.016322459	None	None	312.2009612	None							17	1	2020_Feb_21_1058	choiceText	3.1.2	59.9894957"Teaching yourself a 
different language"	NS	0	0	29	29	66																									314.3681988	None	$0.03 	3.839	0.016749796	None	None	314.3681988	None							17	1	2020_Feb_21_1058	choiceText	3.1.2	59.9894957"Going on a hike 
by yourself"	NS	0	0	30	30	108																									318.2382486	None	$0 	2.727	0.014380472	None	None	318.2382486	None							17	1	2020_Feb_21_1058	choiceText	3.1.2	59.9894957"Trying out a new 
recipe at home"	NS	0	0	31	31	68																									321.0202369	None	$0 	3.091	0.01577507	None	None	321.0202369	None							17	1	2020_Feb_21_1058	choiceText	3.1.2	59.9894957Looking at your Twitter feed	SM	2	0	32	32	48																									324.1390107	None	$0.01 	3.645	0.013579294	None	None	324.1390107	None							17	1	2020_Feb_21_1058	choiceText	3.1.2	59.9894957Taking a nap	NS	0	0	33	33	74																									327.8221666	None	$0.05 	3.534	0.01027101	None	None	327.8221666	None							17	1	2020_Feb_21_1058	choiceText	3.1.2	59.9894957Getting 1 million subscribers on Youtube	SM	2	0	34	34	23																									331.4065985	None	$0.03 	3.603	0.018322607	None	None	331.4065985	None							17	1	2020_Feb_21_1058	choiceText	3.1.2	59.9894957Shopping online	NS	0	0	35	35	69																									335.0409749	None	$0.05 	1.886	0.010472238	None	None	335.0409749	None							17	1	2020_Feb_21_1058	choiceText	3.1.2	59.9894957"Getting likes on an
Instagram picture"	SM	2	0	36	36	17																									336.9761248	None	$0.05 	2.612	0.023678934	None	None	336.9761248	None							17	1	2020_Feb_21_1058	choiceText	3.1.2	59.9894957"Getting verified on 
Instagram"	SM	2	0	37	37	47																									339.6265133	None	$0.03 	2.945	0.013522689	None	None	339.6265133	None							17	1	2020_Feb_21_1058	choiceText	3.1.2	59.9894957Looking at your Facebook feed	SM	2	0	38	38	55																									342.6265998	None	$0.04 	3.675	0.01487561	None	None	342.6265998	None							17	1	2020_Feb_21_1058	choiceText	3.1.2	59.9894957Watching videos on Youtube	NS	0	0	39	39	14																									346.3610495	None	$0.04 	2.559	0.030901671	None	None	346.3610495	None							17	1	2020_Feb_21_1058	choiceText	3.1.2	59.9894957Studying for a test alone	NS	0	0	40	40	99																									348.9454471	None	$0.02 	3.746	0.013224735	None	None	348.9454471	None							17	1	2020_Feb_21_1058	choiceText	3.1.2	59.9894957"Going to a farmer's
market by yourself"	NS	0	0	41	41	83																									352.7462886	None	$0 	4.005	0.016957555	None	None	352.7462886	None							17	1	2020_Feb_21_1058	choiceText	3.1.2	59.9894957Snapchatting your friends	SM	2	0	42	42	2																									356.7809059	None	$0.04 	7.398	0.01225965	None	None	356.7809059	None							17	1	2020_Feb_21_1058	choiceText	3.1.2	59.9894957"Becoming ""InstaFamous"""	SM	2	0	43	43	36																									364.2331405	None	$0.01 	3.707	0.015798708	None	None	364.2331405	None							17	1	2020_Feb_21_1058	choiceText	3.1.2	59.9894957"Going sight-seeing
with family"	S	1	0	44	44	24																									367.9841043	None	$0.03 	2.874	0.015716288	None	None	367.9841043	None							17	1	2020_Feb_21_1058	choiceText	3.1.2	59.9894957"Going for a bicycle
ride alone"	NS	0	0	45	45	95																									370.8873616	None	$0 	2.994	0.01447782	None	None	370.8873616	None							17	1	2020_Feb_21_1058	choiceText	3.1.2	59.9894957Writing journal entries	NS	0	0	46	46	107																									373.9190567	None	$0 	1.664	0.012194337	None	None	373.9190567	None							17	1	2020_Feb_21_1058	choiceText	3.1.2	59.9894957Playing with a pet	NS	0	0	47	47	87																									375.6198087	None	$0.03 	3.13	0.01266024	None	None	375.6198087	None							17	1	2020_Feb_21_1058	choiceText	3.1.2	59.9894957"Going grocery shopping 
alone"	NS	0	0	48	48	89																									378.8206822	None	$0 	2.759	0.030526896	None	None	378.8206822	None							17	1	2020_Feb_21_1058	choiceText	3.1.2	59.9894957"Playing videogames 
with friends"	S	1	0	49	49	31																									381.6214932	None	$0.05 	1.89	0.01541087	None	None	381.6214932	None							17	1	2020_Feb_21_1058	choiceText	3.1.2	59.9894957"Getting a slice of 
pizza with a friend"	S	1	0	50	50	10																									383.5553723	None	$0.04 	3.292	0.017854216	None	None	383.5553723	None							17	1	2020_Feb_21_1058	choiceText	3.1.2	59.9894957"Watching Netflix at home 
by yourself"	NS	0	0	51	51	76																									386.9063918	None	$0.05 	2.473	0.028407629	None	None	386.9063918	None							17	1	2020_Feb_21_1058	choiceText	3.1.2	59.9894957Uploading photos on social media	SM	2	0	52	52	5																									389.4237992	None	$0.04 	3.021	0.017207302	None	None	389.4237992	None							17	1	2020_Feb_21_1058	choiceText	3.1.2	59.9894957"Going to the beach 
alone"	NS	0	0	53	53	80																									392.474657	None	$0 	2.031	0.012331184	None	None	392.474657	None							17	1	2020_Feb_21_1058	choiceText	3.1.2	59.9894957Watching the news	NS	0	0	54	54	104																									394.5419809	None	$0.02 	2.632	0.011657522	None	None	394.5419809	None							17	1	2020_Feb_21_1058	choiceText	3.1.2	59.9894957"Watching YouTube
videos"	NS	0	0	55	55	81																									397.2113734	None	$0.05 	3.811	0.01358738	None	None	397.2113734	None							17	1	2020_Feb_21_1058	choiceText	3.1.2	59.9894957Taking classes with a friend	S	1	0	56	56	25																									401.077473	None	$0.05 	2.409	0.015507596	None	None	401.077473	None							17	1	2020_Feb_21_1058	choiceText	3.1.2	59.9894957Reading a book	NS	0	0	57	57	92																									403.5112851	None	$0 	2.466	0.010758995	None	None	403.5112851	None							17	1	2020_Feb_21_1058	choiceText	3.1.2	59.9894957"Going on a weekend
getaway with family"	S	1	0	58	58	18																									406.0289133	None	$0.04 	3.372	0.016326814	None	None	406.0289133	None							17	1	2020_Feb_21_1058	choiceText	3.1.2	59.9894957Putting gas in a car	NS	0	0	59	59	90																									409.4297599	None	$0.02 	4.767	0.011520364	None	None	409.4297599	None							17	1	2020_Feb_21_1058	choiceText	3.1.2	59.9894957"Going to an amusement 
park with a friend"	S	1	0	60	60	27																									414.2503916	None	$0.05 	2.093	0.025053005	None	None	414.2503916	None							17	1	2020_Feb_21_1058	choiceText	3.1.2	59.9894957Posting Instagram stories	SM	2	0	61	61	33																									416.3839907	None	$0.03 	3.113	0.013658914	None	None	416.3839907	None							17	1	2020_Feb_21_1058	choiceText	3.1.2	59.9894957Sharing Youtube videos with your partner	SM	2	0	62	62	9																									419.5494844	None	$0 	2.999	0.023466821	None	None	419.5494844	None							17	1	2020_Feb_21_1058	choiceText	3.1.2	59.9894957"Getting tagged in 
Instagram pictures"	SM	2	0	63	63	11																									422.6002731	None	$0.05 	2.335	0.020640302	None	None	422.6002731	None							17	1	2020_Feb_21_1058	choiceText	3.1.2	59.9894957"Sleeping over at 
a friend's house"	S	1	0	64	64	26																									424.9845232	None	$0.03 	3.188	0.016742643	None	None	424.9845232	None							17	1	2020_Feb_21_1058	choiceText	3.1.2	59.9894957"Buying coffee on 
the way to work"	NS	0	0	65	65	63																									428.2186154	None	$0 	1.988	0.017496236	None	None	428.2186154	None							17	1	2020_Feb_21_1058	choiceText	3.1.2	59.9894957Going on a blind date	S	1	0	66	66	34																									430.235972	None	$0 	3.631	0.011946146	None	None	430.235972	None							17	1	2020_Feb_21_1058	choiceText	3.1.2	59.9894957"Going to a bar 
with friends"	S	1	0	67	67	35																									433.9051061	None	$0.03 	2.645	0.013634032	None	None	433.9051061	None							17	1	2020_Feb_21_1058	choiceText	3.1.2	59.9894957"Trying to solve a 
Rubik’s cube"	NS	0	0	68	68	73																									436.6046103	None	$0.01 	2.734	0.018993781	None	None	436.6046103	None							17	1	2020_Feb_21_1058	choiceText	3.1.2	59.9894957Having hundreds of friends on Facebook	SM	2	0	69	69	59																									439.388725	None	$0.01 	2.904	0.017339173	None	None	439.388725	None							17	1	2020_Feb_21_1058	choiceText	3.1.2	59.9894957"Painting your bedroom
a new color"	NS	0	0	70	70	101																									442.3395592	None	$0 	4.209	0.015572599	None	None	442.3395592	None							17	1	2020_Feb_21_1058	choiceText	3.1.2	59.9894957Make a post on Twitter	SM	2	0	71	71	53																									446.5742016	None	$0 	1.93	0.012604568	None	None	446.5742016	None							17	1	2020_Feb_21_1058	choiceText	3.1.2	59.9894957"Planting flowers 
in a garden"	NS	0	0	72	72	67																									448.5436025	None	$0 	1.659	0.014115797	None	None	448.5436025	None							17	1	2020_Feb_21_1058	choiceText	3.1.2	59.9894957"Celebrating holidays 
with family"	S	1	0	73	73	37																									450.2587356	None	$0.05 	2.52	0.016988657	None	None	450.2587356	None							17	1	2020_Feb_21_1058	choiceText	3.1.2	59.9894957"Rearranging furniture 
in your house"	NS	0	0	74	74	100																									452.8259782	None	$0.04 	2.958	0.015255984	None	None	452.8259782	None							17	1	2020_Feb_21_1058	choiceText	3.1.2	59.9894957"Listening to music
by yourself"	NS	0	0	75	75	109																									455.8269641	None	$0.05 	1.592	0.014736275	None	None	455.8269641	None							17	1	2020_Feb_21_1058	choiceText	3.1.2	59.9894957Practicing photography	NS	0	0	76	76	65																									457.4456491	None	$0 	3.144	0.014697398	None	None	457.4456491	None							17	1	2020_Feb_21_1058	choiceText	3.1.2	59.9894957Running a marathon	NS	0	0	77	77	93																									460.6283489	None	$0 	1.931	0.011978802	None	None	460.6283489	None							17	1	2020_Feb_21_1058	choiceText	3.1.2	59.9894957"Going on vacation 
by yourself"	NS	0	0	78	78	94																									462.5963534	None	$0 	2.478	0.013519889	None	None	462.5963534	None							17	1	2020_Feb_21_1058	choiceText	3.1.2	59.9894957"Taking a family member
 on a shopping trip"	S	1	0	79	79	0																									465.1296416	None	$0.02 	4.718	0.01898756	None	None	465.1296416	None							17	1	2020_Feb_21_1058	choiceText	3.1.2	59.9894957Going to the zoo with friends	S	1	0	80	80	52																									469.8823595	None	$0.05 	2.028	0.014070389	None	None	469.8823595	None							17	1	2020_Feb_21_1058	choiceText	3.1.2	59.9894957Getting a haircut	NS	0	0	81	81	91																									471.9485146	None	$0.03 	5.104	0.010432117	None	None	471.9485146	None							17	1	2020_Feb_21_1058	choiceText	3.1.2	59.9894957"Taking your friend 
on a cruise"	S	1	0	82	82	6																									477.0998836	None	$0.04 	3.752	0.01979838	None	None	477.0998836	None							17	1	2020_Feb_21_1058	choiceText	3.1.2	59.9894957Direct messaging friends on Instagrams	SM	2	0	83	83	28																									480.901052	None	$0.03 	3.755	0.016449043	None	None	480.901052	None							17	1	2020_Feb_21_1058	choiceText	3.1.2	59.9894957"Taking your friend 
to the spa"	S	1	0	84	84	1																									484.7021715	None	$0.02 	3.43	0.014345016	None	None	484.7021715	None							17	1	2020_Feb_21_1058	choiceText	3.1.2	59.9894957"Looking through old 
photo albums"	NS	0	0	85	85	106																									488.1722487	None	$0.05 	2.894	0.024495663	None	None	488.1722487	None							17	1	2020_Feb_21_1058	choiceText	3.1.2	59.9894957Exercising from home	NS	0	0	86	86	71																									491.1040826	None	$0.04 	2.079	0.013248683	None	None	491.1040826	None							17	1	2020_Feb_21_1058	choiceText	3.1.2	59.9894957"Walking around Central 
Park with family"	S	1	0	87	87	13																									493.2379305	None	$0.03 	3.569	0.018140973	None	None	493.2379305	None							17	1	2020_Feb_21_1058	choiceText	3.1.2	59.9894957"Learning how to 
perform card tricks"	NS	0	0	88	88	103																									496.8557822	None	$0 	2.236	0.01836024	None	None	496.8557822	None							17	1	2020_Feb_21_1058	choiceText	3.1.2	59.9894957"Going for a walk 
in the park"	NS	0	0	89	89	64																									499.1398234	None	$0.03 	2.776	0.014715126	None	None	499.1398234	None							17	1	2020_Feb_21_1058	choiceText	3.1.2	59.9894957Making cookies with your partner	S	1	0	90	90	8																									501.9572467	None	$0.04 	2.341	0.015728107	None	None	501.9572467	None							17	1	2020_Feb_21_1058	choiceText	3.1.2	59.9894957"Driving to school
by yourself"	NS	0	0	91	91	88																									504.327079	None	$0.04 	3.426	0.014241759	None	None	504.327079	None							17	1	2020_Feb_21_1058	choiceText	3.1.2	59.9894957"Snapchat your friends to keep your ""Snapstreaks"""	SM	2	0	92	92	51																									507.8091394	None	$0.04 	4.565	0.020645278	None	None	507.8091394	None							17	1	2020_Feb_21_1058	choiceText	3.1.2	59.9894957"Talking to a friend 
over Skype"	SM	2	0	93	93	12																									512.4270046	None	$0 	1.892	0.014628352	None	None	512.4270046	None							17	1	2020_Feb_21_1058	choiceText	3.1.2	59.9894957"Going dancing with
a significant other"	S	1	0	94	94	21																									514.3611437	None	$0.05 	3.373	0.016440646	None	None	514.3611437	None							17	1	2020_Feb_21_1058	choiceText	3.1.2	59.9894957"Getting likes on a 
Facebook status"	SM	2	0	95	95	45																									517.778592	None	$0.02 	2.688	0.017165936	None	None	517.778592	None							17	1	2020_Feb_21_1058	choiceText	3.1.2	59.9894957"Going to a museum 
alone"	NS	0	0	96	96	96																									520.4959865	None	$0 	2.014	0.012356065	None	None	520.4959865	None							17	1	2020_Feb_21_1058	choiceText	3.1.2	59.9894957"Taking an online
class"	NS	0	0	97	97	86																									522.5466474	None	$0 	2.797	0.01238499	None	None	522.5466474	None							17	1	2020_Feb_21_1058	choiceText	3.1.2	59.9894957"Going to the movies 
by yourself"	NS	0	0	98	98	77																									525.397528	None	$0 	1.824	0.015369505	None	None	525.397528	None							17	1	2020_Feb_21_1058	choiceText	3.1.2	59.9894957"Taking an art class 
with friends"	S	1	0	99	99	38																									527.2650147	None	$0.03 	2.122	0.01733824	None	None	527.2650147	None							17	1	2020_Feb_21_1058	choiceText	3.1.2	59.9894957"Going to a karaoke
bar with friends"	S	1	0	100	100	43																									529.4320194	None	$0.04 	2.406	0.016107236	None	None	529.4320194	None							17	1	2020_Feb_21_1058	choiceText	3.1.2	59.9894957"Taking a road trip 
by yourself"	NS	0	0	101	101	75																									531.8829838	None	$0 	2.273	0.016091996	None	None	531.8829838	None							17	1	2020_Feb_21_1058	choiceText	3.1.2	59.9894957"Getting retweeted by 
a celebrity"	SM	2	0	102	102	29																									534.2001982	None	$0.04 	2.725	0.015134376	None	None	534.2001982	None							17	1	2020_Feb_21_1058	choiceText	3.1.2	59.9894957"Going to a street fair
with friends"	S	1	0	103	103	40																									536.9531466	None	$0.05 	2.811	0.014700197	None	None	536.9531466	None							17	1	2020_Feb_21_1058	choiceText	3.1.2	59.9894957"Going to a comedy show 
with a significant other"	S	1	0	104	104	56																									539.8185856	None	$0.05 	3.185	0.020049682	None	None	539.8185856	None							17	1	2020_Feb_21_1058	choiceText	3.1.2	59.9894957"Getting drinks 
with co-workers"	S	1	0	105	105	44																									543.0695523	None	$0.04 	2.859	0.029734737	None	None	543.0695523	None							17	1	2020_Feb_21_1058	choiceText	3.1.2	59.9894957"Practicing an
 instrument"	NS	0	0	106	106	61																									545.9559221	None	$0 	2.06	0.014466002	None	None	545.9559221	None							17	1	2020_Feb_21_1058	choiceText	3.1.2	59.9894957"Playing ping-pong
with friends"	S	1	0	107	107	22																									548.0709749	None	$0.05 	2.058	0.014944034	None	None	548.0709749	None							17	1	2020_Feb_21_1058	choiceText	3.1.2	59.9894957"Watching a football 
game from home"	NS	0	0	108	108	62																									550.1716367	None	$0.04 	2.123	0.017435277	None	None	550.1716367	None							17	1	2020_Feb_21_1058	choiceText	3.1.2	59.9894957Calling a family member over Skype	SM	2	0	109	109	32																									552.3554614	None	$0 	2.709	0.025481275	None	None	552.3554614	None							17	1	2020_Feb_21_1058	choiceText	3.1.2	59.9894957																																								555.0731474	556.0733607	space	13.65065128	555.0731474	None	17	1	2020_Feb_21_1058	choiceText	3.1.2	59.9894957