choices,trials.thisRepN,trials.thisTrialN,trials.thisN,trials.thisIndex,Instructions.started,Instructions.stopped,key_resp_3.keys,key_resp_3.rt,key_resp_3.started,key_resp_3.stopped,text.started,text.stopped,rating.response,rating.rt,rating.started,rating.stopped,key_resp_2.keys,key_resp_2.started,key_resp_2.stopped,text_2.started,text_2.stopped,key_resp_4.keys,key_resp_4.rt,key_resp_4.started,key_resp_4.stopped,participant,session,date,expName,psychopyVersion,frameRate,
,,,,,None,None,space,-1.119652213077643,None,None,,,,,,,,,,,,,,,,0,001,2019_Nov_20_0938,choiceText,3.1.2,59.982613207141384,
"Going to a street fair
with friends",0,0,0,40,,,,,,,11.371100133052096,None,$0.02,9.996,0.9141150660143467,None,None,11.371100133052096,None,,,,,,,0,001,2019_Nov_20_0938,choiceText,3.1.2,59.982613207141384,
Going to a coffee shop with friends,0,1,1,58,,,,,,,21.406960217107553,None,$0.05,4.599,0.0277423396037193,None,None,21.406960217107553,None,,,,,,,0,001,2019_Nov_20_0938,choiceText,3.1.2,59.982613207141384,
"Celebrating holidays 
with family",0,2,2,37,,,,,,,26.07600499113323,None,$0.05,1.935,0.03989516381989233,None,None,26.07600499113323,None,,,,,,,0,001,2019_Nov_20_0938,choiceText,3.1.2,59.982613207141384,
"Playing videogames 
with friends",0,3,3,31,,,,,,,28.108266346360324,None,$0.01,2.024,0.04899757471866906,None,None,28.108266346360324,None,,,,,,,0,001,2019_Nov_20_0938,choiceText,3.1.2,59.982613207141384,
Snapchat your friends to keep your "Snapstreaks",0,4,4,51,,,,,,,30.208550549839856,None,$0.01,4.246,0.04116471797169652,None,None,30.208550549839856,None,,,,,,,0,001,2019_Nov_20_0938,choiceText,3.1.2,59.982613207141384,
Having a celebrity comment on your Facebook post,0,5,5,57,,,,,,,34.52663668918831,None,$0.01,2.345,0.041137970867566764,None,None,34.52663668918831,None,,,,,,,0,001,2019_Nov_20_0938,choiceText,3.1.2,59.982613207141384,
Make comments on your friend's Instagram post,0,6,6,50,,,,,,,36.94381460901059,None,$0.01,1.945,0.04175315413158387,None,None,36.94381460901059,None,,,,,,,0,001,2019_Nov_20_0938,choiceText,3.1.2,59.982613207141384,
Taking classes with a friend,0,7,7,25,,,,,,,38.94443445747311,None,$0.01,1.729,0.03003730287309736,None,None,38.94443445747311,None,,,,,,,0,001,2019_Nov_20_0938,choiceText,3.1.2,59.982613207141384,
Becoming "InstaFamous",0,8,8,36,,,,,,,40.72849642117217,None,$0.05,2.908,0.031173121533356607,None,None,40.72849642117217,None,,,,,,,0,001,2019_Nov_20_0938,choiceText,3.1.2,59.982613207141384,
Getting 1 million subscribers on Youtube,0,9,9,23,,,,,,,43.69572656005039,None,$0.05,3.086,0.03462007612688467,None,None,43.69572656005039,None,,,,,,,0,001,2019_Nov_20_0938,choiceText,3.1.2,59.982613207141384,
"Going on a first date 
to the movies",0,10,10,20,,,,,,,46.83149358909577,None,$0.02,2.582,0.023693264258326963,None,None,46.83149358909577,None,,,,,,,0,001,2019_Nov_20_0938,choiceText,3.1.2,59.982613207141384,
"Sleeping over at 
a friend's house",0,11,11,26,,,,,,,49.480740844868706,None,$0.01,1.919,0.032889601032366045,None,None,49.480740844868706,None,,,,,,,0,001,2019_Nov_20_0938,choiceText,3.1.2,59.982613207141384,
Calling a family member over Skype,0,12,12,32,,,,,,,51.46482010088221,None,$0.01,1.895,0.024546994347474538,None,None,51.46482010088221,None,,,,,,,0,001,2019_Nov_20_0938,choiceText,3.1.2,59.982613207141384,
"Taking a family member
 on a shopping trip",0,13,13,0,,,,,,,53.41513425488665,None,$0.05,3.061,0.028241204083315097,None,None,53.41513425488665,None,,,,,,,0,001,2019_Nov_20_0938,choiceText,3.1.2,59.982613207141384,
Looking at your Twitter feed,0,14,14,48,,,,,,,56.532987881073495,None,$0.01,2.521,0.03227814992715139,None,None,56.532987881073495,None,,,,,,,0,001,2019_Nov_20_0938,choiceText,3.1.2,59.982613207141384,
Watching videos on Youtube,0,15,15,14,,,,,,,59.10108195124485,None,$0.01,2.116,0.024259618541691452,None,None,59.10108195124485,None,,,,,,,0,001,2019_Nov_20_0938,choiceText,3.1.2,59.982613207141384,
"Going sight-seeing
with family",0,16,16,24,,,,,,,61.2841064385284,None,$0.01,1.638,0.037804224921274,None,None,61.2841064385284,None,,,,,,,0,001,2019_Nov_20_0938,choiceText,3.1.2,59.982613207141384,
Make a post on Twitter,0,17,17,53,,,,,,,62.96823906432837,None,$0.01,2.956,0.022163703441037796,None,None,62.96823906432837,None,,,,,,,0,001,2019_Nov_20_0938,choiceText,3.1.2,59.982613207141384,
Viewing videos and photos on Instagram's Explore page,0,18,18,39,,,,,,,66.00215189739538,None,$0.01,2.845,0.0428388997388538,None,None,66.00215189739538,None,,,,,,,0,001,2019_Nov_20_0938,choiceText,3.1.2,59.982613207141384,
"Working on a group
project with classmates",0,19,19,42,,,,,,,68.91957769441069,None,$0.01,2.091,0.04442910804937128,None,None,68.91957769441069,None,,,,,,,0,001,2019_Nov_20_0938,choiceText,3.1.2,59.982613207141384,
"Playing ping-pong
with friends",0,20,20,22,,,,,,,71.07024814464967,None,$0.01,1.922,0.03287933761021122,None,None,71.07024814464967,None,,,,,,,0,001,2019_Nov_20_0938,choiceText,3.1.2,59.982613207141384,
"Going to an amusement 
park with a friend",0,21,21,27,,,,,,,73.05432149142143,None,$0.02,2.053,0.03065279715519864,None,None,73.05432149142143,None,,,,,,,0,001,2019_Nov_20_0938,choiceText,3.1.2,59.982613207141384,
"Taking your friend 
to the spa",0,22,22,1,,,,,,,75.17159072461072,None,$0.03,2.44,0.033705076537444256,None,None,75.17159072461072,None,,,,,,,0,001,2019_Nov_20_0938,choiceText,3.1.2,59.982613207141384,
"Getting drinks 
with co-workers",0,23,23,44,,,,,,,77.67209114416619,None,$0.03,1.747,0.029130389622878283,None,None,77.67209114416619,None,,,,,,,0,001,2019_Nov_20_0938,choiceText,3.1.2,59.982613207141384,
Going on a blind date,0,24,24,34,,,,,,,79.45621717648464,None,$0.01,2.268,0.026640732350642793,None,None,79.45621717648464,None,,,,,,,0,001,2019_Nov_20_0938,choiceText,3.1.2,59.982613207141384,
"Playing icebreakers
with classmates",0,25,25,19,,,,,,,81.79003683013434,None,$0.01,1.717,0.03340868136729114,None,None,81.79003683013434,None,,,,,,,0,001,2019_Nov_20_0938,choiceText,3.1.2,59.982613207141384,
"Getting retweeted by 
a celebrity",0,26,26,29,,,,,,,83.55842126182688,None,$0.01,2.583,0.025973609954235144,None,None,83.55842126182688,None,,,,,,,0,001,2019_Nov_20_0938,choiceText,3.1.2,59.982613207141384,
Going to the zoo with friends,0,27,27,52,,,,,,,86.20806163774978,None,$0.01,2.829,0.02891361371439416,None,None,86.20806163774978,None,,,,,,,0,001,2019_Nov_20_0938,choiceText,3.1.2,59.982613207141384,
Having a Tweet go viral,0,28,28,15,,,,,,,89.09201592883619,None,$0.05,2.873,0.03612879909633193,None,None,89.09201592883619,None,,,,,,,0,001,2019_Nov_20_0938,choiceText,3.1.2,59.982613207141384,
"Taking an art class 
with friends",0,29,29,38,,,,,,,92.02634838034282,None,$0.01,2.06,0.029003807416302152,None,None,92.02634838034282,None,,,,,,,0,001,2019_Nov_20_0938,choiceText,3.1.2,59.982613207141384,
"Getting likes on an
Instagram picture",0,30,30,17,,,,,,,94.14340394774626,None,$0.01,2.256,0.03236834361450747,None,None,94.14340394774626,None,,,,,,,0,001,2019_Nov_20_0938,choiceText,3.1.2,59.982613207141384,
Looking at your Facebook feed,0,31,31,55,,,,,,,96.46100148602272,None,$0.01,2.106,0.029444512518239208,None,None,96.46100148602272,None,,,,,,,0,001,2019_Nov_20_0938,choiceText,3.1.2,59.982613207141384,
"Getting likes on a 
Facebook status",0,32,32,45,,,,,,,98.62810958348564,None,$0.01,1.911,0.02837182945222594,None,None,98.62810958348564,None,,,,,,,0,001,2019_Nov_20_0938,choiceText,3.1.2,59.982613207141384,
Viedochatting your friend over Snapchat,0,33,33,7,,,,,,,100.59749068671954,None,$0.01,1.964,0.03867599373916164,None,None,100.59749068671954,None,,,,,,,0,001,2019_Nov_20_0938,choiceText,3.1.2,59.982613207141384,
"Getting tagged in 
Instagram pictures",0,34,34,11,,,,,,,102.6292245642835,None,$0.01,2.021,0.03293531991948839,None,None,102.6292245642835,None,,,,,,,0,001,2019_Nov_20_0938,choiceText,3.1.2,59.982613207141384,
"Playing volleyball
with friends",0,35,35,16,,,,,,,104.6966571102821,None,$0.01,1.901,0.021476987240021117,None,None,104.6966571102821,None,,,,,,,0,001,2019_Nov_20_0938,choiceText,3.1.2,59.982613207141384,
Snapchating your friends,0,36,36,2,,,,,,,106.6472160313424,None,$0.01,2.07,0.02125958929536864,None,None,106.6472160313424,None,,,,,,,0,001,2019_Nov_20_0938,choiceText,3.1.2,59.982613207141384,
"Learning to drive 
with a family member",0,37,37,46,,,,,,,108.7809138923767,None,$0.01,2.245,0.029535639259847812,None,None,108.7809138923767,None,,,,,,,0,001,2019_Nov_20_0938,choiceText,3.1.2,59.982613207141384,
"Going dancing with
a significant other",0,38,38,21,,,,,,,111.08159917793819,None,$0.03,2.921,0.03687709583027754,None,None,111.08159917793819,None,,,,,,,0,001,2019_Nov_20_0938,choiceText,3.1.2,59.982613207141384,
"Going to a music
festival with friends",0,39,39,30,,,,,,,114.06593937365687,None,$0.03,2.39,0.03156095444865059,None,None,114.06593937365687,None,,,,,,,0,001,2019_Nov_20_0938,choiceText,3.1.2,59.982613207141384,
"Getting ice cream
with friends",0,40,40,49,,,,,,,116.51680277622654,None,$0.02,2.721,0.03602834197226912,None,None,116.51680277622654,None,,,,,,,0,001,2019_Nov_20_0938,choiceText,3.1.2,59.982613207141384,
"Getting verified on 
Instagram",0,41,41,47,,,,,,,119.30072758329334,None,$0.05,2.612,0.028575542819453403,None,None,119.30072758329334,None,,,,,,,0,001,2019_Nov_20_0938,choiceText,3.1.2,59.982613207141384,
"Talking to a friend 
over Skype",0,42,42,12,,,,,,,121.9681905463367,None,$0.01,3.037,0.03597920195898041,None,None,121.9681905463367,None,,,,,,,0,001,2019_Nov_20_0938,choiceText,3.1.2,59.982613207141384,
Uploading photos on social media,0,43,43,5,,,,,,,125.06894686720625,None,$0.01,2.312,0.02948214506614022,None,None,125.06894686720625,None,,,,,,,0,001,2019_Nov_20_0938,choiceText,3.1.2,59.982613207141384,
"Going on a weekend
getaway with family",0,44,44,18,,,,,,,127.43633195264556,None,$0.03,3.355,0.0371909077221062,None,None,127.43633195264556,None,,,,,,,0,001,2019_Nov_20_0938,choiceText,3.1.2,59.982613207141384,
Direct messaging your crush on Snapchat,0,45,45,54,,,,,,,130.8709393394529,None,$0.01,2.576,0.042297115476685576,None,None,130.8709393394529,None,,,,,,,0,001,2019_Nov_20_0938,choiceText,3.1.2,59.982613207141384,
Going out to dinner with friends,0,46,46,3,,,,,,,133.48826859809924,None,$0.02,1.798,0.026076244161231443,None,None,133.48826859809924,None,,,,,,,0,001,2019_Nov_20_0938,choiceText,3.1.2,59.982613207141384,
"Going to a comedy show 
with a significant other",0,47,47,56,,,,,,,135.3552157775557,None,$0.01,2.574,0.033457821380579844,None,None,135.3552157775557,None,,,,,,,0,001,2019_Nov_20_0938,choiceText,3.1.2,59.982613207141384,
Having hundreds of friends on Facebook,0,48,48,59,,,,,,,137.98926726012724,None,$0.01,2.086,0.03725435433443636,None,None,137.98926726012724,None,,,,,,,0,001,2019_Nov_20_0938,choiceText,3.1.2,59.982613207141384,
"Going to a bar 
with friends",0,49,49,35,,,,,,,140.1235426718922,None,$0.03,1.986,0.024975880965939723,None,None,140.1235426718922,None,,,,,,,0,001,2019_Nov_20_0938,choiceText,3.1.2,59.982613207141384,
"Walking around Central 
Park with family",0,50,50,13,,,,,,,142.190458936675,None,$0.01,3.478,0.041571211666450836,None,None,142.190458936675,None,,,,,,,0,001,2019_Nov_20_0938,choiceText,3.1.2,59.982613207141384,
Looking at your friend's Snapchat stories,0,51,51,4,,,,,,,145.72499566136685,None,$0.01,2.309,0.028717364664771594,None,None,145.72499566136685,None,,,,,,,0,001,2019_Nov_20_0938,choiceText,3.1.2,59.982613207141384,
"Going to a karaoke
bar with friends",0,52,52,43,,,,,,,148.09243641809735,None,$0.01,2.685,0.03979874985816423,None,None,148.09243641809735,None,,,,,,,0,001,2019_Nov_20_0938,choiceText,3.1.2,59.982613207141384,
Making cookies with your partner,0,53,53,8,,,,,,,150.8431332422333,None,$0.02,2.048,0.0348157031548908,None,None,150.8431332422333,None,,,,,,,0,001,2019_Nov_20_0938,choiceText,3.1.2,59.982613207141384,
Sharing Youtube videos with your partner,0,54,54,9,,,,,,,152.96017450305226,None,$0.01,1.754,0.03551983607758302,None,None,152.96017450305226,None,,,,,,,0,001,2019_Nov_20_0938,choiceText,3.1.2,59.982613207141384,
"Taking your friend 
on a cruise",0,55,55,6,,,,,,,154.77763177455927,None,$0.03,2.737,0.033421121872379445,None,None,154.77763177455927,None,,,,,,,0,001,2019_Nov_20_0938,choiceText,3.1.2,59.982613207141384,
Posting Instagram stories,0,56,56,33,,,,,,,157.57819980829663,None,$0.01,2.172,0.03555777964356821,None,None,157.57819980829663,None,,,,,,,0,001,2019_Nov_20_0938,choiceText,3.1.2,59.982613207141384,
Direct messaging friends on Instagrams,0,57,57,28,,,,,,,159.79678052014788,None,$0.01,3.25,0.027435680996859446,None,None,159.79678052014788,None,,,,,,,0,001,2019_Nov_20_0938,choiceText,3.1.2,59.982613207141384,
Getting a lot of comments on your Instagram post,0,58,58,41,,,,,,,163.1149686716817,None,$0.01,2.748,0.03745464656094555,None,None,163.1149686716817,None,,,,,,,0,001,2019_Nov_20_0938,choiceText,3.1.2,59.982613207141384,
"Getting a slice of 
pizza with a friend",0,59,59,10,,,,,,,165.93079468118958,None,$0.01,2.658,0.03201503310992848,None,None,165.93079468118958,None,,,,,,,0,001,2019_Nov_20_0938,choiceText,3.1.2,59.982613207141384,
,,,,,,,,,,,,,,,,,,,,168.59837738414353,169.5987179431395,space,4.73615293369221,168.59837738414353,None,0,001,2019_Nov_20_0938,choiceText,3.1.2,59.982613207141384,
