leftmoney,Right,rightmoney,Left,leftmoney1,rightmoney1,Left1,Right1,Loop.thisRepN,Loop.thisTrialN,Loop.thisN,Loop.thisIndex,Loop2.thisRepN,Loop2.thisTrialN,Loop2.thisN,Loop2.thisIndex,questions.thisRepN,questions.thisTrialN,questions.thisN,questions.thisIndex,spacebar.keys,spacebar.rt,responses.keys,responses.rt,response1.keys,response1.corr,response1.rt,key_resp_2.keys,key_resp_2.rt,rating.response,rating.rt,rating.history,rating_2.response,rating_2.rt,rating_3.response,rating_3.rt,rating_4.response,rating_4.rt,rating_6.response,rating_6.rt,rating_7.response,rating_7.rt,rating_8.response,rating_8.rt,rating_9.response,rating_9.rt,rating_5.response,rating_5.rt,expName,participant,age,frameRate,sex,session,date,
,,,,,,,,,,,,,,,,,,,,space,5.96901445091,,,,,,,,,,,,,,,,,,,,,,,,,,,newer wtp,exc9,19,59.8450859072,1,001,2018_Nov_30_1549,
0.01,"Giving a friend a ride
to school",0.05,"Listening to music
by yourself",,,,,0,0,0,42,,,,,,,,,,,1,3.75225680601,,,,,,,,,,,,,,,,,,,,,,,,,newer wtp,exc9,19,59.8450859072,1,001,2018_Nov_30_1549,
0.04,"Going to a work outing
with colleagues",0.01,"Going on vacation 
by yourself",,,,,0,1,1,11,,,,,,,,,,,2,2.55199325178,,,,,,,,,,,,,,,,,,,,,,,,,newer wtp,exc9,19,59.8450859072,1,001,2018_Nov_30_1549,
0.02,Reading at the library,0.05,"Watching the sunset 
with a significant other",,,,,0,2,2,36,,,,,,,,,,,1,1.85174167156,,,,,,,,,,,,,,,,,,,,,,,,,newer wtp,exc9,19,59.8450859072,1,001,2018_Nov_30_1549,
0.01,"Going to a carnival 
with friends",0.01,"Rearranging furniture 
in your house",,,,,0,3,3,23,,,,,,,,,,,2,2.68488741107,,,,,,,,,,,,,,,,,,,,,,,,,newer wtp,exc9,19,59.8450859072,1,001,2018_Nov_30_1549,
0.01,"Having a movie marathon 
with a roommate",0.04,"Looking through old 
photo albums",,,,,0,4,4,35,,,,,,,,,,,2,1.90127059259,,,,,,,,,,,,,,,,,,,,,,,,,newer wtp,exc9,19,59.8450859072,1,001,2018_Nov_30_1549,
0.03,"Teaching yourself a 
different language",0.03,"Joining a club 
at school",,,,,0,5,5,12,,,,,,,,,,,2,2.23517816328,,,,,,,,,,,,,,,,,,,,,,,,,newer wtp,exc9,19,59.8450859072,1,001,2018_Nov_30_1549,
0.05,"Going camping 
with family",0.01,"Learning how to 
perform card tricks",,,,,0,6,6,29,,,,,,,,,,,2,1.65149584506,,,,,,,,,,,,,,,,,,,,,,,,,newer wtp,exc9,19,59.8450859072,1,001,2018_Nov_30_1549,
0.02,"Shopping for clothes
with friends",0.03,"Going to the beach 
alone",,,,,0,7,7,40,,,,,,,,,,,2,1.51795850601,,,,,,,,,,,,,,,,,,,,,,,,,newer wtp,exc9,19,59.8450859072,1,001,2018_Nov_30_1549,
0.01,"Playing cards with 
friends",0.02,Studying for a test alone,,,,,0,8,8,21,,,,,,,,,,,1,3.13557231333,,,,,,,,,,,,,,,,,,,,,,,,,newer wtp,exc9,19,59.8450859072,1,001,2018_Nov_30_1549,
0.03,"Going to a sporting
event with friends",0.05,Putting gas in a car,,,,,0,9,9,3,,,,,,,,,,,2,2.08513585012,,,,,,,,,,,,,,,,,,,,,,,,,newer wtp,exc9,19,59.8450859072,1,001,2018_Nov_30_1549,
0.02,"Going to the movies
with a significant other",0.05,"Driving to school
by yourself",,,,,0,10,10,46,,,,,,,,,,,2,2.91852324829,,,,,,,,,,,,,,,,,,,,,,,,,newer wtp,exc9,19,59.8450859072,1,001,2018_Nov_30_1549,
0.02,"Having a romantic dinner 
with a significant other",0.02,"Painting your bedroom
a new color",,,,,0,11,11,25,,,,,,,,,,,2,2.70195594616,,,,,,,,,,,,,,,,,,,,,,,,,newer wtp,exc9,19,59.8450859072,1,001,2018_Nov_30_1549,
0.02,Exercising from home,0.03,"Attending a Superbowl 
party",,,,,0,12,12,22,,,,,,,,,,,1,1.26786248013,,,,,,,,,,,,,,,,,,,,,,,,,newer wtp,exc9,19,59.8450859072,1,001,2018_Nov_30_1549,
0.03,"Watching Netflix at home 
by yourself",0.03,"Meeting new people 
at a party",,,,,0,13,13,32,,,,,,,,,,,2,2.01796830259,,,,,,,,,,,,,,,,,,,,,,,,,newer wtp,exc9,19,59.8450859072,1,001,2018_Nov_30_1549,
0.01,"Studying abroad 
with friends",0.05,Playing with a pet,,,,,0,14,14,45,,,,,,,,,,,2,2.85187105462,,,,,,,,,,,,,,,,,,,,,,,,,newer wtp,exc9,19,59.8450859072,1,001,2018_Nov_30_1549,
0.05,"Participating in 
a debate",0.03,"Going to a museum 
alone",,,,,0,15,15,15,,,,,,,,,,,2,1.78433215432,,,,,,,,,,,,,,,,,,,,,,,,,newer wtp,exc9,19,59.8450859072,1,001,2018_Nov_30_1549,
0.03,"Going on a 
dinner date",0.04,Getting a haircut,,,,,0,16,16,5,,,,,,,,,,,1,0.967986855656,,,,,,,,,,,,,,,,,,,,,,,,,newer wtp,exc9,19,59.8450859072,1,001,2018_Nov_30_1549,
0.04,"Watching a football 
game from home",0.01,"Attending a family 
barbeque",,,,,0,17,17,4,,,,,,,,,,,1,1.26775766816,,,,,,,,,,,,,,,,,,,,,,,,,newer wtp,exc9,19,59.8450859072,1,001,2018_Nov_30_1549,
0.01,"Going to a nightclub with 
a group of friends",0.05,Writing journal entries,,,,,0,18,18,37,,,,,,,,,,,2,2.6019025445,,,,,,,,,,,,,,,,,,,,,,,,,newer wtp,exc9,19,59.8450859072,1,001,2018_Nov_30_1549,
0.02,"Having a picnic 
with family",0.02,"Watching a new 
episode of a television 
show",,,,,0,19,19,17,,,,,,,,,,,2,1.73485579621,,,,,,,,,,,,,,,,,,,,,,,,,newer wtp,exc9,19,59.8450859072,1,001,2018_Nov_30_1549,
0.05,"Putting together 
a puzzle",0.01,"Going to the movies 
with a friend",,,,,0,20,20,0,,,,,,,,,,,1,3.56872775685,,,,,,,,,,,,,,,,,,,,,,,,,newer wtp,exc9,19,59.8450859072,1,001,2018_Nov_30_1549,
0.01,Drawing a picture,0.03,"Getting likes on an 
Instagram picture",,,,,0,21,21,20,,,,,,,,,,,2,2.81844309904,,,,,,,,,,,,,,,,,,,,,,,,,newer wtp,exc9,19,59.8450859072,1,001,2018_Nov_30_1549,
0.04,"Reading news 
articles",0.04,"Watching television
with family",,,,,0,22,22,47,,,,,,,,,,,1,2.5351474043,,,,,,,,,,,,,,,,,,,,,,,,,newer wtp,exc9,19,59.8450859072,1,001,2018_Nov_30_1549,
0.01,"Watching YouTube
videos",0.02,"Making breakfast 
for your family",,,,,0,23,23,41,,,,,,,,,,,1,2.93539024517,,,,,,,,,,,,,,,,,,,,,,,,,newer wtp,exc9,19,59.8450859072,1,001,2018_Nov_30_1549,
0.01,"Going to a friend’s 
birthday party",0.04,Reading a book,,,,,0,24,24,7,,,,,,,,,,,2,1.05150013696,,,,,,,,,,,,,,,,,,,,,,,,,newer wtp,exc9,19,59.8450859072,1,001,2018_Nov_30_1549,
0.05,Taking a nap,0.02,"Getting likes on a 
facebook post",,,,,0,25,25,28,,,,,,,,,,,2,0.868087717332,,,,,,,,,,,,,,,,,,,,,,,,,newer wtp,exc9,19,59.8450859072,1,001,2018_Nov_30_1549,
0.03,Shopping online,0.01,"Catching up with friends 
from high school",,,,,0,26,26,18,,,,,,,,,,,1,2.66814948525,,,,,,,,,,,,,,,,,,,,,,,,,newer wtp,exc9,19,59.8450859072,1,001,2018_Nov_30_1549,
0.02,"Getting lunch with 
coworkers",0.01,"Going to a farmer's
market by yourself",,,,,0,27,27,43,,,,,,,,,,,2,1.4517753236,,,,,,,,,,,,,,,,,,,,,,,,,newer wtp,exc9,19,59.8450859072,1,001,2018_Nov_30_1549,
0.03,"Going to the movies 
by yourself",0.01,"Seeing a play with a 
significant other",,,,,0,28,28,34,,,,,,,,,,,1,2.61861434486,,,,,,,,,,,,,,,,,,,,,,,,,newer wtp,exc9,19,59.8450859072,1,001,2018_Nov_30_1549,
0.05,"Planting flowers 
in a garden",0.02,"Taking a road trip 
with family",,,,,0,29,29,14,,,,,,,,,,,1,1.40156092495,,,,,,,,,,,,,,,,,,,,,,,,,newer wtp,exc9,19,59.8450859072,1,001,2018_Nov_30_1549,
0.03,"Getting a slice of pizza 
by yourself",0.02,Joining a study group,,,,,0,30,30,24,,,,,,,,,,,1,2.03462691978,,,,,,,,,,,,,,,,,,,,,,,,,newer wtp,exc9,19,59.8450859072,1,001,2018_Nov_30_1549,
0.04,"Snapchatting with
friends",0.05,"Playing a videogame 
at home",,,,,0,31,31,19,,,,,,,,,,,1,2.50177978724,,,,,,,,,,,,,,,,,,,,,,,,,newer wtp,exc9,19,59.8450859072,1,001,2018_Nov_30_1549,
0.05,"Going for a walk 
in the park",0.01,Playing a team sport,,,,,0,32,32,8,,,,,,,,,,,1,2.43506507855,,,,,,,,,,,,,,,,,,,,,,,,,newer wtp,exc9,19,59.8450859072,1,001,2018_Nov_30_1549,
0.03,"Cleaning up around 
the house",0.05,"Playing a tennis match
 with a friend",,,,,0,33,33,38,,,,,,,,,,,2,3.28544698935,,,,,,,,,,,,,,,,,,,,,,,,,newer wtp,exc9,19,59.8450859072,1,001,2018_Nov_30_1549,
0.02,"Going on a double 
date",0.04,Doing your laundry,,,,,0,34,34,33,,,,,,,,,,,1,1.55163713917,,,,,,,,,,,,,,,,,,,,,,,,,newer wtp,exc9,19,59.8450859072,1,001,2018_Nov_30_1549,
0.02,"Adding new friends
on facebook",0.01,Running a marathon,,,,,0,35,35,9,,,,,,,,,,,1,1.28443339095,,,,,,,,,,,,,,,,,,,,,,,,,newer wtp,exc9,19,59.8450859072,1,001,2018_Nov_30_1549,
0.05,"Trying to solve a 
Rubik’s cube",0.03,"Going shopping with
a significant other",,,,,0,36,36,26,,,,,,,,,,,1,2.20137667935,,,,,,,,,,,,,,,,,,,,,,,,,newer wtp,exc9,19,59.8450859072,1,001,2018_Nov_30_1549,
0.05,"Taking a road trip 
by yourself",0.03,"Traveling abroad with 
a significant other",,,,,0,37,37,30,,,,,,,,,,,1,2.13446540944,,,,,,,,,,,,,,,,,,,,,,,,,newer wtp,exc9,19,59.8450859072,1,001,2018_Nov_30_1549,
0.05,"Going on Spring Break 
vacation with friends",0.01,"Going for a bicycle
ride alone",,,,,0,38,38,13,,,,,,,,,,,2,2.30184030998,,,,,,,,,,,,,,,,,,,,,,,,,newer wtp,exc9,19,59.8450859072,1,001,2018_Nov_30_1549,
0.05,"Having dinner with 
family",0.02,"Going grocery shopping 
alone",,,,,0,39,39,1,,,,,,,,,,,2,3.35217507184,,,,,,,,,,,,,,,,,,,,,,,,,newer wtp,exc9,19,59.8450859072,1,001,2018_Nov_30_1549,
0.04,"Getting breakfast with 
a significant other",0.02,Listening to a podcast,,,,,0,40,40,27,,,,,,,,,,,2,1.61791300401,,,,,,,,,,,,,,,,,,,,,,,,,newer wtp,exc9,19,59.8450859072,1,001,2018_Nov_30_1549,
0.04,"Trying out a new 
recipe at home",0.03,"Spending a day at the 
beach with a friend",,,,,0,41,41,16,,,,,,,,,,,1,2.93505745847,,,,,,,,,,,,,,,,,,,,,,,,,newer wtp,exc9,19,59.8450859072,1,001,2018_Nov_30_1549,
0.03,"Going to a family 
member’s baby shower",0.02,Watching the news,,,,,0,42,42,31,,,,,,,,,,,2,1.4182969844,,,,,,,,,,,,,,,,,,,,,,,,,newer wtp,exc9,19,59.8450859072,1,001,2018_Nov_30_1549,
0.04,"Taking an online
class",0.03,"Gaining Twitter
followers ",,,,,0,43,43,49,,,,,,,,,,,1,2.73534533475,,,,,,,,,,,,,,,,,,,,,,,,,newer wtp,exc9,19,59.8450859072,1,001,2018_Nov_30_1549,
0.02,Practicing photography,0.04,"Going to a concert 
with a friend",,,,,0,44,44,10,,,,,,,,,,,1,2.35160715785,,,,,,,,,,,,,,,,,,,,,,,,,newer wtp,exc9,19,59.8450859072,1,001,2018_Nov_30_1549,
0.01,"Buying clothes 
for yourself",0.03,"Going to a party
with roommates",,,,,0,45,45,48,,,,,,,,,,,2,2.95206410158,,,,,,,,,,,,,,,,,,,,,,,,,newer wtp,exc9,19,59.8450859072,1,001,2018_Nov_30_1549,
0.02,"Practicing an
 instrument",0.05,"Attending a family member’s 
wedding",,,,,0,46,46,2,,,,,,,,,,,1,2.01847121492,,,,,,,,,,,,,,,,,,,,,,,,,newer wtp,exc9,19,59.8450859072,1,001,2018_Nov_30_1549,
0.01,"Buying coffee on 
the way to work",0.05,"Getting retweets 
on a picture",,,,,0,47,47,6,,,,,,,,,,,2,2.38519870583,,,,,,,,,,,,,,,,,,,,,,,,,newer wtp,exc9,19,59.8450859072,1,001,2018_Nov_30_1549,
0.04,"Babysitting for a 
family member",0.01,"Going on a hike 
by yourself",,,,,0,48,48,39,,,,,,,,,,,2,3.5855114013,,,,,,,,,,,,,,,,,,,,,,,,,newer wtp,exc9,19,59.8450859072,1,001,2018_Nov_30_1549,
0.01,"Getting breakfast
by yourself",0.04,"Gaining Instagram
followers",,,,,0,49,49,44,,,,,,,,,,,2,1.80120786093,,,,,,,,,,,,,,,,,,,,,,,,,newer wtp,exc9,19,59.8450859072,1,001,2018_Nov_30_1549,
,,,,0.05,0.01,Taking classes with a friend,"Taking a family member
 on a shopping trip",,,,,0,0,0,0,,,,,,,,,2,0,2.33520326298,,,,,,,,,,,,,,,,,,,,,,newer wtp,exc9,19,59.8450859072,1,001,2018_Nov_30_1549,
,,,,0.01,0.01,"Going to a comedy show 
with a significant other","Watching friends'
Snapchat stories",,,,,0,1,1,23,,,,,,,,,1,0,1.71836046316,,,,,,,,,,,,,,,,,,,,,,newer wtp,exc9,19,59.8450859072,1,001,2018_Nov_30_1549,
,,,,0.03,0.04,"Going to a music
festival with friends","Buying flowers for 
a significant other",,,,,0,2,2,5,,,,,,,,,1,0,1.83482553437,,,,,,,,,,,,,,,,,,,,,,newer wtp,exc9,19,59.8450859072,1,001,2018_Nov_30_1549,
,,,,0.03,0.02,"Getting ice cream
with friends","Going sight-seeing
with family",,,,,0,3,3,24,,,,,,,,,2,0,2.0682050949,,,,,,,,,,,,,,,,,,,,,,newer wtp,exc9,19,59.8450859072,1,001,2018_Nov_30_1549,
,,,,0.04,0.02,"Baking cookies for
a neighbor","Getting tagged in 
Instagram pictures",,,,,0,4,4,11,,,,,,,,,1,0,2.96874137875,,,,,,,,,,,,,,,,,,,,,,newer wtp,exc9,19,59.8450859072,1,001,2018_Nov_30_1549,
,,,,0.02,0.03,"Getting verified on 
Instagram","Playing ping-pong
with friends",,,,,0,5,5,22,,,,,,,,,2,0,3.51827916317,,,,,,,,,,,,,,,,,,,,,,newer wtp,exc9,19,59.8450859072,1,001,2018_Nov_30_1549,
,,,,0.02,0.02,"Working on a group
project with classmates","Getting likes on an
Instagram picture",,,,,0,6,6,17,,,,,,,,,1,0,1.93482015375,,,,,,,,,,,,,,,,,,,,,,newer wtp,exc9,19,59.8450859072,1,001,2018_Nov_30_1549,
,,,,0.01,0.03,"Getting likes on a 
Facebook status","Going on a first date 
to the movies",,,,,0,7,7,20,,,,,,,,,2,0,1.66837434936,,,,,,,,,,,,,,,,,,,,,,newer wtp,exc9,19,59.8450859072,1,001,2018_Nov_30_1549,
,,,,0.03,0.01,"Going to a karaoke
bar with friends","Going on a weekend
getaway with family",,,,,0,8,8,18,,,,,,,,,2,0,1.98438919522,,,,,,,,,,,,,,,,,,,,,,newer wtp,exc9,19,59.8450859072,1,001,2018_Nov_30_1549,
,,,,0.01,0.04,"Talking over the phone
with a friend","Talking over the phone
with a significant other",,,,,0,9,9,7,,,,,,,,,None,0,,,,,,,,,,,,,,,,,,,,,,,newer wtp,exc9,19,59.8450859072,1,001,2018_Nov_30_1549,
,,,,0.03,0.03,"Celebrating holidays 
with family","Talking to a friend 
over Skype",,,,,0,10,10,12,,,,,,,,,1,0,1.38469299488,,,,,,,,,,,,,,,,,,,,,,newer wtp,exc9,19,59.8450859072,1,001,2018_Nov_30_1549,
,,,,0.01,0.02,"Learning to drive 
with a family member","Going dancing with
a significant other",,,,,0,11,11,21,,,,,,,,,1,0,1.61817985587,,,,,,,,,,,,,,,,,,,,,,newer wtp,exc9,19,59.8450859072,1,001,2018_Nov_30_1549,
,,,,0.05,0.03,"Going to a street fair
with friends",Having a Tweet go viral,,,,,0,12,12,15,,,,,,,,,1,0,2.60164253507,,,,,,,,,,,,,,,,,,,,,,newer wtp,exc9,19,59.8450859072,1,001,2018_Nov_30_1549,
,,,,0.02,0.05,"Going to an amusement 
park with a friend","Baking a cake for a 
family member’s birthday",,,,,0,13,13,2,,,,,,,,,2,0,2.53514056187,,,,,,,,,,,,,,,,,,,,,,newer wtp,exc9,19,59.8450859072,1,001,2018_Nov_30_1549,
,,,,0.01,0.05,"Getting drinks 
with co-workers","Playing icebreakers
with classmates",,,,,0,14,14,19,,,,,,,,,1,0,1.88487136271,,,,,,,,,,,,,,,,,,,,,,newer wtp,exc9,19,59.8450859072,1,001,2018_Nov_30_1549,
,,,,0.03,0.05,"Going to a parade 
with family","Making a friend’s 
favorite dinner",,,,,0,15,15,3,,,,,,,,,1,0,3.21862155944,,,,,,,,,,,,,,,,,,,,,,newer wtp,exc9,19,59.8450859072,1,001,2018_Nov_30_1549,
,,,,0.02,0.05,"Taking an art class 
with friends","Walking around Central 
Park with family",,,,,0,16,16,13,,,,,,,,,2,0,1.73506448697,,,,,,,,,,,,,,,,,,,,,,newer wtp,exc9,19,59.8450859072,1,001,2018_Nov_30_1549,
,,,,0.04,0.01,"Getting retweeted by 
a celebrity","Planning a surprise 
party for a family member",,,,,0,17,17,4,,,,,,,,,2,0,1.88491863664,,,,,,,,,,,,,,,,,,,,,,newer wtp,exc9,19,59.8450859072,1,001,2018_Nov_30_1549,
,,,,0.04,0.03,"Going to a flea market
with family","Playing volleyball
with friends",,,,,0,18,18,16,,,,,,,,,1,0,1.36812084075,,,,,,,,,,,,,,,,,,,,,,newer wtp,exc9,19,59.8450859072,1,001,2018_Nov_30_1549,
,,,,0.05,0.02,"Eating dinner at a 
restaurant with family","Eating dinner at a
restaurant with friends ",,,,,0,19,19,14,,,,,,,,,1,0,1.55128413625,,,,,,,,,,,,,,,,,,,,,,newer wtp,exc9,19,59.8450859072,1,001,2018_Nov_30_1549,
,,,,0.02,0.04,"Going to a bar 
with friends","Getting a slice of 
pizza with a friend",,,,,0,20,20,10,,,,,,,,,2,0,2.65197511949,,,,,,,,,,,,,,,,,,,,,,newer wtp,exc9,19,59.8450859072,1,001,2018_Nov_30_1549,
,,,,0.05,0.01,Posting Instagram stories,"Making cookies to 
give to a friend",,,,,0,21,21,8,,,,,,,,,2,0,1.55163465161,,,,,,,,,,,,,,,,,,,,,,newer wtp,exc9,19,59.8450859072,1,001,2018_Nov_30_1549,
,,,,0.02,0.01,Going on a blind date,"Going to a coffee 
shop with friends",,,,,0,22,22,9,,,,,,,,,2,0,2.3016309971,,,,,,,,,,,,,,,,,,,,,,newer wtp,exc9,19,59.8450859072,1,001,2018_Nov_30_1549,
,,,,0.01,0.05,"Playing videogames 
with friends","Taking your friend 
on a cruise",,,,,0,23,23,6,,,,,,,,,1,0,2.4346153494,,,,,,,,,,,,,,,,,,,,,,newer wtp,exc9,19,59.8450859072,1,001,2018_Nov_30_1549,
,,,,0.05,0.02,"Sleeping over at 
a friend's house","Taking your friend 
to the spa",,,,,0,24,24,1,,,,,,,,,1,0,2.98525132984,,,,,,,,,,,,,,,,,,,,,,newer wtp,exc9,19,59.8450859072,1,001,2018_Nov_30_1549,
,,,,,,,,,,,,,,,,,,,,,,,,,,,space,6.38611060381,,,,,,,,,,,,,,,,,,,,newer wtp,exc9,19,59.8450859072,1,001,2018_Nov_30_1549,
,,,,,,,,,,,,,,,,0,0,0,0,,,,,,,,,,7,8.385,"[(None, 0.0), (7, 7.75), (7, 8.385)]",3,7.652,1,4.569,6,7.221,6,14.621,7,5.87,3,4.937,3,7.252,7,2.268,newer wtp,exc9,19,59.8450859072,1,001,2018_Nov_30_1549,
