choices,trials.thisRepN,trials.thisTrialN,trials.thisN,trials.thisIndex,Instructions.started,Instructions.stopped,key_resp_3.keys,key_resp_3.rt,key_resp_3.started,key_resp_3.stopped,text.started,text.stopped,rating.response,rating.rt,rating.started,rating.stopped,key_resp_2.keys,key_resp_2.started,key_resp_2.stopped,text_2.started,text_2.stopped,key_resp_4.keys,key_resp_4.rt,key_resp_4.started,key_resp_4.stopped,participant,session,date,expName,psychopyVersion,frameRate,
,,,,,11.491960012994241,None,space,8.143075013998896,11.491960012994241,None,,,,,,,,,,,,,,,,99999,001,2019_Nov_25_2131,choiceText,3.1.5,60.132552833595625,
"Going to a bar 
with friends",0,0,0,35,,,,,,,19.755757690989412,None,$0.60,19.334,0.04083334997994825,None,None,19.755757690989412,None,,,,,,,99999,001,2019_Nov_25_2131,choiceText,3.1.5,60.132552833595625,
"Getting likes on an
Instagram picture",0,1,1,17,,,,,,,39.126960875990335,None,$0.60,1.813,0.028864997962955385,None,None,39.126960875990335,None,,,,,,,99999,001,2019_Nov_25_2131,choiceText,3.1.5,60.132552833595625,
"Eating dinner at a
restaurant with friends ",0,2,2,14,,,,,,,40.975622944009956,None,$0.60,0.453,0.027441915008239448,None,None,40.975622944009956,None,,,,,,,99999,001,2019_Nov_25_2131,choiceText,3.1.5,60.132552833595625,
"Sleeping over at 
a friend's house",0,3,3,26,,,,,,,41.47560462902766,None,$0.60,0.438,0.027183342957869172,None,None,41.47560462902766,None,,,,,,,99999,001,2019_Nov_25_2131,choiceText,3.1.5,60.132552833595625,
"Baking a cake for a 
family memberís birthday",0,4,4,2,,,,,,,41.96046037401538,None,$0.60,0.568,0.02820386999519542,None,None,41.96046037401538,None,,,,,,,99999,001,2019_Nov_25_2131,choiceText,3.1.5,60.132552833595625,
"Going on a weekend
getaway with family",0,5,5,18,,,,,,,42.575538150034845,None,$0.60,0.571,0.02611740300199017,None,None,42.575538150034845,None,,,,,,,99999,001,2019_Nov_25_2131,choiceText,3.1.5,60.132552833595625,
"Buying flowers for 
a significant other",0,6,6,5,,,,,,,43.1943491550046,None,$0.60,0.574,0.024915408983360976,None,None,43.1943491550046,None,,,,,,,99999,001,2019_Nov_25_2131,choiceText,3.1.5,60.132552833595625,
"Going to a coffee 
shop with friends",0,7,7,9,,,,,,,43.81024980399525,None,$0.60,0.522,0.025518768990878016,None,None,43.81024980399525,None,,,,,,,99999,001,2019_Nov_25_2131,choiceText,3.1.5,60.132552833595625,
"Taking an art class 
with friends",0,8,8,38,,,,,,,44.37561886099866,None,$0.60,0.406,0.026557311008218676,None,None,44.37561886099866,None,,,,,,,99999,001,2019_Nov_25_2131,choiceText,3.1.5,60.132552833595625,
"Playing videogames 
with friends",0,9,9,31,,,,,,,44.843518603011034,None,$0.60,0.668,0.02524050697684288,None,None,44.843518603011034,None,,,,,,,99999,001,2019_Nov_25_2131,choiceText,3.1.5,60.132552833595625,
"Going to a music
festival with friends",0,10,10,30,,,,,,,45.55922721204115,None,$0.60,0.553,0.025306185008957982,None,None,45.55922721204115,None,,,,,,,99999,001,2019_Nov_25_2131,choiceText,3.1.5,60.132552833595625,
"Watching friends'
Snapchat stories",0,11,11,23,,,,,,,46.15941245801514,None,$0.60,0.571,0.027187205967493355,None,None,46.15941245801514,None,,,,,,,99999,001,2019_Nov_25_2131,choiceText,3.1.5,60.132552833595625,
"Making cookies to 
give to a friend",0,12,12,8,,,,,,,46.77666026499355,None,$0.60,2.456,0.02696581999771297,None,None,46.77666026499355,None,,,,,,,99999,001,2019_Nov_25_2131,choiceText,3.1.5,60.132552833595625,
"Walking around Central 
Park with family",0,13,13,13,,,,,,,49.309859814005904,None,$0.60,0.527,0.030248755996581167,None,None,49.309859814005904,None,,,,,,,99999,001,2019_Nov_25_2131,choiceText,3.1.5,60.132552833595625,
"Learning to drive 
with a family member",0,14,14,46,,,,,,,49.876785630011,None,$0.60,0.569,0.027040467015467584,None,None,49.876785630011,None,,,,,,,99999,001,2019_Nov_25_2131,choiceText,3.1.5,60.132552833595625,
"Going sight-seeing
with family",0,15,15,24,,,,,,,50.493267049023416,None,$0.60,0.488,0.026715416985098273,None,None,50.493267049023416,None,,,,,,,99999,001,2019_Nov_25_2131,choiceText,3.1.5,60.132552833595625,
"Getting tagged in 
Instagram pictures",0,16,16,11,,,,,,,51.042991895985324,None,$0.60,0.589,0.025291840021964163,None,None,51.042991895985324,None,,,,,,,99999,001,2019_Nov_25_2131,choiceText,3.1.5,60.132552833595625,
Posting Instagram stories,0,17,17,33,,,,,,,51.67933809099486,None,$0.60,0.574,0.02452633500797674,None,None,51.67933809099486,None,,,,,,,99999,001,2019_Nov_25_2131,choiceText,3.1.5,60.132552833595625,
"Celebrating holidays 
with family",0,18,18,37,,,,,,,52.29320384701714,None,$0.60,0.704,0.025900109030772,None,None,52.29320384701714,None,,,,,,,99999,001,2019_Nov_25_2131,choiceText,3.1.5,60.132552833595625,
"Going dancing with
a significant other",0,19,19,21,,,,,,,53.04563663399313,None,$0.60,0.673,0.025130787049420178,None,None,53.04563663399313,None,,,,,,,99999,001,2019_Nov_25_2131,choiceText,3.1.5,60.132552833595625,
"Getting ice cream
with friends",0,20,20,49,,,,,,,53.76149562903447,None,$0.60,0.557,0.02521126199280843,None,None,53.76149562903447,None,,,,,,,99999,001,2019_Nov_25_2131,choiceText,3.1.5,60.132552833595625,
"Getting verified on 
Instagram",0,21,21,47,,,,,,,54.362189959036186,None,$0.60,0.675,0.024441978021059185,None,None,54.362189959036186,None,,,,,,,99999,001,2019_Nov_25_2131,choiceText,3.1.5,60.132552833595625,
"Going to a karaoke
bar with friends",0,22,22,43,,,,,,,55.077321583987214,None,$0.60,0.754,0.02533830504398793,None,None,55.077321583987214,None,,,,,,,99999,001,2019_Nov_25_2131,choiceText,3.1.5,60.132552833595625,
"Talking over the phone
with a friend",0,23,23,32,,,,,,,55.877486132027116,None,$0.60,0.721,0.026406682038214058,None,None,55.877486132027116,None,,,,,,,99999,001,2019_Nov_25_2131,choiceText,3.1.5,60.132552833595625,
"Going on a first date 
to the movies",0,24,24,20,,,,,,,56.644079059013166,None,$0.60,0.603,0.025597947998903692,None,None,56.644079059013166,None,,,,,,,99999,001,2019_Nov_25_2131,choiceText,3.1.5,60.132552833595625,
"Playing ping-pong
with friends",0,25,25,22,,,,,,,57.29438338300679,None,$0.60,0.436,0.025481288030277938,None,None,57.29438338300679,None,,,,,,,99999,001,2019_Nov_25_2131,choiceText,3.1.5,60.132552833595625,
"Playing volleyball
with friends",0,26,26,16,,,,,,,57.77782042702893,None,$0.60,0.905,0.026673086977098137,None,None,57.77782042702893,None,,,,,,,99999,001,2019_Nov_25_2131,choiceText,3.1.5,60.132552833595625,
"Making a friendís 
favorite dinner",0,27,27,3,,,,,,,58.72736682399409,None,$0.60,0.889,0.02585201198235154,None,None,58.72736682399409,None,,,,,,,99999,001,2019_Nov_25_2131,choiceText,3.1.5,60.132552833595625,
Taking classes with a friend,0,28,28,25,,,,,,,59.661756273999345,None,$0.60,0.655,0.025516700989101082,None,None,59.661756273999345,None,,,,,,,99999,001,2019_Nov_25_2131,choiceText,3.1.5,60.132552833595625,
Having a Tweet go viral,0,29,29,15,,,,,,,60.36166769900592,None,$0.60,0.554,0.02565341495210305,None,None,60.36166769900592,None,,,,,,,99999,001,2019_Nov_25_2131,choiceText,3.1.5,60.132552833595625,
"Talking over the phone
with a significant other",0,30,30,7,,,,,,,60.96257441298803,None,$0.60,0.586,0.02702059003058821,None,None,60.96257441298803,None,,,,,,,99999,001,2019_Nov_25_2131,choiceText,3.1.5,60.132552833595625,
"Talking to a friend 
over Skype",0,31,31,12,,,,,,,61.59510785801103,None,$0.60,0.555,0.02609449200099334,None,None,61.59510785801103,None,,,,,,,99999,001,2019_Nov_25_2131,choiceText,3.1.5,60.132552833595625,
"Getting drinks 
with co-workers",0,32,32,44,,,,,,,62.2135373140336,None,$0.60,0.568,0.02588879899121821,None,None,62.2135373140336,None,,,,,,,99999,001,2019_Nov_25_2131,choiceText,3.1.5,60.132552833595625,
"Taking your friend 
to the spa",0,33,33,1,,,,,,,62.83072925003944,None,$0.60,0.573,0.025086935027502477,None,None,62.83072925003944,None,,,,,,,99999,001,2019_Nov_25_2131,choiceText,3.1.5,60.132552833595625,
"Going to a street fair
with friends",0,34,34,40,,,,,,,63.44784746400546,None,$0.60,0.49,0.025360036990605295,None,None,63.44784746400546,None,,,,,,,99999,001,2019_Nov_25_2131,choiceText,3.1.5,60.132552833595625,
"Eating dinner at a 
restaurant with family",0,35,35,39,,,,,,,63.99647684098454,None,$0.60,0.504,0.025725086976308376,None,None,63.99647684098454,None,,,,,,,99999,001,2019_Nov_25_2131,choiceText,3.1.5,60.132552833595625,
"Getting retweeted by 
a celebrity",0,36,36,29,,,,,,,64.54563981102547,None,$0.60,0.456,0.02489611995406449,None,None,64.54563981102547,None,,,,,,,99999,001,2019_Nov_25_2131,choiceText,3.1.5,60.132552833595625,
"Getting a slice of 
pizza with a friend",0,37,37,10,,,,,,,65.04803202999756,None,$0.60,0.519,0.028092441032640636,None,None,65.04803202999756,None,,,,,,,99999,001,2019_Nov_25_2131,choiceText,3.1.5,60.132552833595625,
Going on a blind date,0,38,38,34,,,,,,,65.61435361899203,None,$0.60,0.508,0.024457093968521804,None,None,65.61435361899203,None,,,,,,,99999,001,2019_Nov_25_2131,choiceText,3.1.5,60.132552833595625,
"Going to a flea market
with family",0,39,39,41,,,,,,,66.1623219170142,None,$0.60,0.473,0.025354246026836336,None,None,66.1623219170142,None,,,,,,,99999,001,2019_Nov_25_2131,choiceText,3.1.5,60.132552833595625,
"Taking a family member
 on a shopping trip",0,40,40,0,,,,,,,66.69745423301356,None,$0.60,0.583,0.028594964009243995,None,None,66.69745423301356,None,,,,,,,99999,001,2019_Nov_25_2131,choiceText,3.1.5,60.132552833595625,
"Baking cookies for
a neighbor",0,41,41,36,,,,,,,67.31366637302563,None,$0.60,0.659,0.02405249496223405,None,None,67.31366637302563,None,,,,,,,99999,001,2019_Nov_25_2131,choiceText,3.1.5,60.132552833595625,
"Going to an amusement 
park with a friend",0,42,42,27,,,,,,,68.03127740998752,None,$0.60,0.784,0.026091015024576336,None,None,68.03127740998752,None,,,,,,,99999,001,2019_Nov_25_2131,choiceText,3.1.5,60.132552833595625,
"Going to a parade 
with family",0,43,43,28,,,,,,,68.86549670499517,None,$0.60,0.754,0.02504886395763606,None,None,68.86549670499517,None,,,,,,,99999,001,2019_Nov_25_2131,choiceText,3.1.5,60.132552833595625,
"Playing icebreakers
with classmates",0,44,44,19,,,,,,,69.66377703100443,None,$0.60,0.421,0.024915976042393595,None,None,69.66377703100443,None,,,,,,,99999,001,2019_Nov_25_2131,choiceText,3.1.5,60.132552833595625,
"Going to a comedy show 
with a significant other",0,45,45,48,,,,,,,70.13082953199046,None,$0.60,0.502,0.027103891014121473,None,None,70.13082953199046,None,,,,,,,99999,001,2019_Nov_25_2131,choiceText,3.1.5,60.132552833595625,
"Working on a group
project with classmates",0,46,46,42,,,,,,,70.69940318301087,None,$0.60,0.615,0.02916984900366515,None,None,70.69940318301087,None,,,,,,,99999,001,2019_Nov_25_2131,choiceText,3.1.5,60.132552833595625,
"Planning a surprise 
party for a family member",0,47,47,4,,,,,,,71.346933007997,None,$0.60,0.537,0.027162032027263194,None,None,71.346933007997,None,,,,,,,99999,001,2019_Nov_25_2131,choiceText,3.1.5,60.132552833595625,
"Taking your friend 
on a cruise",0,48,48,6,,,,,,,71.9299171200255,None,$0.60,0.472,0.025834174011833966,None,None,71.9299171200255,None,,,,,,,99999,001,2019_Nov_25_2131,choiceText,3.1.5,60.132552833595625,
"Getting likes on a 
Facebook status",0,49,49,45,,,,,,,72.44784380402416,None,$0.60,0.437,0.02674920903518796,None,None,72.44784380402416,None,,,,,,,99999,001,2019_Nov_25_2131,choiceText,3.1.5,60.132552833595625,
,,,,,,,,,,,,,,,,,,,,72.9169862390263,73.89761033200193,space,1.1845070240087807,72.9169862390263,None,99999,001,2019_Nov_25_2131,choiceText,3.1.5,60.132552833595625,
