leftmoney,Right,rightmoney,Left,leftmoney1,rightmoney1,Left1,Right1,Loop.thisRepN,Loop.thisTrialN,Loop.thisN,Loop.thisIndex,Loop2.thisRepN,Loop2.thisTrialN,Loop2.thisN,Loop2.thisIndex,questions.thisRepN,questions.thisTrialN,questions.thisN,questions.thisIndex,spacebar.keys,spacebar.rt,responses.keys,responses.rt,response1.keys,response1.corr,response1.rt,key_resp_2.keys,key_resp_2.rt,rating.response,rating.rt,rating.history,rating_2.response,rating_2.rt,rating_3.response,rating_3.rt,rating_4.response,rating_4.rt,rating_6.response,rating_6.rt,rating_7.response,rating_7.rt,rating_8.response,rating_8.rt,rating_9.response,rating_9.rt,rating_5.response,rating_5.rt,expName,participant,age,frameRate,sex,session,date,
,,,,,,,,,,,,,,,,,,,,space,2.11716516782,,,,,,,,,,,,,,,,,,,,,,,,,,,newer wtp,exc14,18,59.9944954946,0,001,2018_Dec_07_1051,
0.05,"Going on Spring Break 
vacation with friends",0.01,"Going for a bicycle
ride alone",,,,,0,0,0,13,,,,,,,,,,,None,,,,,,,,,,,,,,,,,,,,,,,,,,newer wtp,exc14,18,59.9944954946,0,001,2018_Dec_07_1051,
0.04,"Going to a work outing
with colleagues",0.01,"Going on vacation 
by yourself",,,,,0,1,1,11,,,,,,,,,,,None,,,,,,,,,,,,,,,,,,,,,,,,,,newer wtp,exc14,18,59.9944954946,0,001,2018_Dec_07_1051,
0.04,"Reading news 
articles",0.04,"Watching television
with family",,,,,0,2,2,47,,,,,,,,,,,1,2.08455642778,,,,,,,,,,,,,,,,,,,,,,,,,newer wtp,exc14,18,59.9944954946,0,001,2018_Dec_07_1051,
0.01,"Going to a carnival 
with friends",0.01,"Rearranging furniture 
in your house",,,,,0,3,3,23,,,,,,,,,,,2,2.16802025773,,,,,,,,,,,,,,,,,,,,,,,,,newer wtp,exc14,18,59.9944954946,0,001,2018_Dec_07_1051,
0.03,"Going on a 
dinner date",0.04,Getting a haircut,,,,,0,4,4,5,,,,,,,,,,,2,3.58513911534,,,,,,,,,,,,,,,,,,,,,,,,,newer wtp,exc14,18,59.9944954946,0,001,2018_Dec_07_1051,
0.01,"Watching YouTube
videos",0.02,"Making breakfast 
for your family",,,,,0,5,5,41,,,,,,,,,,,1,1.65146660898,,,,,,,,,,,,,,,,,,,,,,,,,newer wtp,exc14,18,59.9944954946,0,001,2018_Dec_07_1051,
0.02,"Practicing an
 instrument",0.05,"Attending a family member’s 
wedding",,,,,0,6,6,2,,,,,,,,,,,1,2.13475994114,,,,,,,,,,,,,,,,,,,,,,,,,newer wtp,exc14,18,59.9944954946,0,001,2018_Dec_07_1051,
0.02,"Going on a double 
date",0.04,Doing your laundry,,,,,0,7,7,33,,,,,,,,,,,2,2.00115760043,,,,,,,,,,,,,,,,,,,,,,,,,newer wtp,exc14,18,59.9944954946,0,001,2018_Dec_07_1051,
0.05,"Going for a walk 
in the park",0.01,Playing a team sport,,,,,0,8,8,8,,,,,,,,,,,1,1.50139661599,,,,,,,,,,,,,,,,,,,,,,,,,newer wtp,exc14,18,59.9944954946,0,001,2018_Dec_07_1051,
0.02,Reading at the library,0.05,"Watching the sunset 
with a significant other",,,,,0,9,9,36,,,,,,,,,,,1,1.95162059367,,,,,,,,,,,,,,,,,,,,,,,,,newer wtp,exc14,18,59.9944954946,0,001,2018_Dec_07_1051,
0.03,"Going to a family 
member’s baby shower",0.02,Watching the news,,,,,0,10,10,31,,,,,,,,,,,2,2.33462384064,,,,,,,,,,,,,,,,,,,,,,,,,newer wtp,exc14,18,59.9944954946,0,001,2018_Dec_07_1051,
0.03,"Going to the movies 
by yourself",0.01,"Seeing a play with a 
significant other",,,,,0,11,11,34,,,,,,,,,,,1,2.35121185705,,,,,,,,,,,,,,,,,,,,,,,,,newer wtp,exc14,18,59.9944954946,0,001,2018_Dec_07_1051,
0.03,Shopping online,0.01,"Catching up with friends 
from high school",,,,,0,12,12,18,,,,,,,,,,,1,1.9350338215,,,,,,,,,,,,,,,,,,,,,,,,,newer wtp,exc14,18,59.9944954946,0,001,2018_Dec_07_1051,
0.04,"Snapchatting with
friends",0.05,"Playing a videogame 
at home",,,,,0,13,13,19,,,,,,,,,,,2,2.03414484579,,,,,,,,,,,,,,,,,,,,,,,,,newer wtp,exc14,18,59.9944954946,0,001,2018_Dec_07_1051,
0.01,"Buying clothes 
for yourself",0.03,"Going to a party
with roommates",,,,,0,14,14,48,,,,,,,,,,,1,1.85155910533,,,,,,,,,,,,,,,,,,,,,,,,,newer wtp,exc14,18,59.9944954946,0,001,2018_Dec_07_1051,
0.05,Taking a nap,0.02,"Getting likes on a 
facebook post",,,,,0,15,15,28,,,,,,,,,,,1,3.68526405096,,,,,,,,,,,,,,,,,,,,,,,,,newer wtp,exc14,18,59.9944954946,0,001,2018_Dec_07_1051,
0.04,"Babysitting for a 
family member",0.01,"Going on a hike 
by yourself",,,,,0,16,16,39,,,,,,,,,,,2,2.48476070259,,,,,,,,,,,,,,,,,,,,,,,,,newer wtp,exc14,18,59.9944954946,0,001,2018_Dec_07_1051,
0.03,"Watching Netflix at home 
by yourself",0.03,"Meeting new people 
at a party",,,,,0,17,17,32,,,,,,,,,,,1,1.71814866085,,,,,,,,,,,,,,,,,,,,,,,,,newer wtp,exc14,18,59.9944954946,0,001,2018_Dec_07_1051,
0.05,"Having dinner with 
family",0.02,"Going grocery shopping 
alone",,,,,0,18,18,1,,,,,,,,,,,2,2.38487556111,,,,,,,,,,,,,,,,,,,,,,,,,newer wtp,exc14,18,59.9944954946,0,001,2018_Dec_07_1051,
0.01,Drawing a picture,0.03,"Getting likes on an 
Instagram picture",,,,,0,19,19,20,,,,,,,,,,,1,1.58370844461,,,,,,,,,,,,,,,,,,,,,,,,,newer wtp,exc14,18,59.9944954946,0,001,2018_Dec_07_1051,
0.05,"Trying to solve a 
Rubik’s cube",0.03,"Going shopping with
a significant other",,,,,0,20,20,26,,,,,,,,,,,1,2.2347514499,,,,,,,,,,,,,,,,,,,,,,,,,newer wtp,exc14,18,59.9944954946,0,001,2018_Dec_07_1051,
0.05,"Planting flowers 
in a garden",0.02,"Taking a road trip 
with family",,,,,0,21,21,14,,,,,,,,,,,1,1.41815174092,,,,,,,,,,,,,,,,,,,,,,,,,newer wtp,exc14,18,59.9944954946,0,001,2018_Dec_07_1051,
0.02,Exercising from home,0.03,"Attending a Superbowl 
party",,,,,0,22,22,22,,,,,,,,,,,2,2.28511171602,,,,,,,,,,,,,,,,,,,,,,,,,newer wtp,exc14,18,59.9944954946,0,001,2018_Dec_07_1051,
0.01,"Getting breakfast
by yourself",0.04,"Gaining Instagram
followers",,,,,0,23,23,44,,,,,,,,,,,1,2.08445970248,,,,,,,,,,,,,,,,,,,,,,,,,newer wtp,exc14,18,59.9944954946,0,001,2018_Dec_07_1051,
0.03,"Teaching yourself a 
different language",0.03,"Joining a club 
at school",,,,,0,24,24,12,,,,,,,,,,,1,2.38497104216,,,,,,,,,,,,,,,,,,,,,,,,,newer wtp,exc14,18,59.9944954946,0,001,2018_Dec_07_1051,
0.05,"Participating in 
a debate",0.03,"Going to a museum 
alone",,,,,0,25,25,15,,,,,,,,,,,2,3.05181830656,,,,,,,,,,,,,,,,,,,,,,,,,newer wtp,exc14,18,59.9944954946,0,001,2018_Dec_07_1051,
0.03,"Cleaning up around 
the house",0.05,"Playing a tennis match
 with a friend",,,,,0,26,26,38,,,,,,,,,,,1,2.35175768938,,,,,,,,,,,,,,,,,,,,,,,,,newer wtp,exc14,18,59.9944954946,0,001,2018_Dec_07_1051,
0.05,"Putting together 
a puzzle",0.01,"Going to the movies 
with a friend",,,,,0,27,27,0,,,,,,,,,,,1,2.05106284935,,,,,,,,,,,,,,,,,,,,,,,,,newer wtp,exc14,18,59.9944954946,0,001,2018_Dec_07_1051,
0.01,"Buying coffee on 
the way to work",0.05,"Getting retweets 
on a picture",,,,,0,28,28,6,,,,,,,,,,,1,2.98482523859,,,,,,,,,,,,,,,,,,,,,,,,,newer wtp,exc14,18,59.9944954946,0,001,2018_Dec_07_1051,
0.01,"Going to a nightclub with 
a group of friends",0.05,Writing journal entries,,,,,0,29,29,37,,,,,,,,,,,2,2.71788492054,,,,,,,,,,,,,,,,,,,,,,,,,newer wtp,exc14,18,59.9944954946,0,001,2018_Dec_07_1051,
0.02,"Having a romantic dinner 
with a significant other",0.02,"Painting your bedroom
a new color",,,,,0,30,30,25,,,,,,,,,,,2,3.06852948386,,,,,,,,,,,,,,,,,,,,,,,,,newer wtp,exc14,18,59.9944954946,0,001,2018_Dec_07_1051,
0.04,"Getting breakfast with 
a significant other",0.02,Listening to a podcast,,,,,0,31,31,27,,,,,,,,,,,2,1.96776261274,,,,,,,,,,,,,,,,,,,,,,,,,newer wtp,exc14,18,59.9944954946,0,001,2018_Dec_07_1051,
0.02,Practicing photography,0.04,"Going to a concert 
with a friend",,,,,0,32,32,10,,,,,,,,,,,1,2.55150246993,,,,,,,,,,,,,,,,,,,,,,,,,newer wtp,exc14,18,59.9944954946,0,001,2018_Dec_07_1051,
0.04,"Trying out a new 
recipe at home",0.03,"Spending a day at the 
beach with a friend",,,,,0,33,33,16,,,,,,,,,,,1,1.78453866858,,,,,,,,,,,,,,,,,,,,,,,,,newer wtp,exc14,18,59.9944954946,0,001,2018_Dec_07_1051,
0.04,"Watching a football 
game from home",0.01,"Attending a family 
barbeque",,,,,0,34,34,4,,,,,,,,,,,1,2.0506905634,,,,,,,,,,,,,,,,,,,,,,,,,newer wtp,exc14,18,59.9944954946,0,001,2018_Dec_07_1051,
0.03,"Getting a slice of pizza 
by yourself",0.02,Joining a study group,,,,,0,35,35,24,,,,,,,,,,,1,2.51802195329,,,,,,,,,,,,,,,,,,,,,,,,,newer wtp,exc14,18,59.9944954946,0,001,2018_Dec_07_1051,
0.01,"Going to a friend’s 
birthday party",0.04,Reading a book,,,,,0,36,36,7,,,,,,,,,,,2,1.38453002274,,,,,,,,,,,,,,,,,,,,,,,,,newer wtp,exc14,18,59.9944954946,0,001,2018_Dec_07_1051,
0.03,"Going to a sporting
event with friends",0.05,Putting gas in a car,,,,,0,37,37,3,,,,,,,,,,,2,1.80184886325,,,,,,,,,,,,,,,,,,,,,,,,,newer wtp,exc14,18,59.9944954946,0,001,2018_Dec_07_1051,
0.01,"Playing cards with 
friends",0.02,Studying for a test alone,,,,,0,38,38,21,,,,,,,,,,,2,2.3345641261,,,,,,,,,,,,,,,,,,,,,,,,,newer wtp,exc14,18,59.9944954946,0,001,2018_Dec_07_1051,
0.02,"Adding new friends
on facebook",0.01,Running a marathon,,,,,0,39,39,9,,,,,,,,,,,2,2.23458474595,,,,,,,,,,,,,,,,,,,,,,,,,newer wtp,exc14,18,59.9944954946,0,001,2018_Dec_07_1051,
0.04,"Taking an online
class",0.03,"Gaining Twitter
followers ",,,,,0,40,40,49,,,,,,,,,,,2,2.38427965529,,,,,,,,,,,,,,,,,,,,,,,,,newer wtp,exc14,18,59.9944954946,0,001,2018_Dec_07_1051,
0.01,"Studying abroad 
with friends",0.05,Playing with a pet,,,,,0,41,41,45,,,,,,,,,,,2,2.01809737459,,,,,,,,,,,,,,,,,,,,,,,,,newer wtp,exc14,18,59.9944954946,0,001,2018_Dec_07_1051,
0.05,"Taking a road trip 
by yourself",0.03,"Traveling abroad with 
a significant other",,,,,0,42,42,30,,,,,,,,,,,1,2.61864326894,,,,,,,,,,,,,,,,,,,,,,,,,newer wtp,exc14,18,59.9944954946,0,001,2018_Dec_07_1051,
0.02,"Having a picnic 
with family",0.02,"Watching a new 
episode of a television 
show",,,,,0,43,43,17,,,,,,,,,,,2,2.95167968608,,,,,,,,,,,,,,,,,,,,,,,,,newer wtp,exc14,18,59.9944954946,0,001,2018_Dec_07_1051,
0.02,"Getting lunch with 
coworkers",0.01,"Going to a farmer's
market by yourself",,,,,0,44,44,43,,,,,,,,,,,2,2.73569989204,,,,,,,,,,,,,,,,,,,,,,,,,newer wtp,exc14,18,59.9944954946,0,001,2018_Dec_07_1051,
0.02,"Going to the movies
with a significant other",0.05,"Driving to school
by yourself",,,,,0,45,45,46,,,,,,,,,,,1,3.11801330745,,,,,,,,,,,,,,,,,,,,,,,,,newer wtp,exc14,18,59.9944954946,0,001,2018_Dec_07_1051,
0.01,"Giving a friend a ride
to school",0.05,"Listening to music
by yourself",,,,,0,46,46,42,,,,,,,,,,,2,2.08436515369,,,,,,,,,,,,,,,,,,,,,,,,,newer wtp,exc14,18,59.9944954946,0,001,2018_Dec_07_1051,
0.01,"Having a movie marathon 
with a roommate",0.04,"Looking through old 
photo albums",,,,,0,47,47,35,,,,,,,,,,,1,1.51810779329,,,,,,,,,,,,,,,,,,,,,,,,,newer wtp,exc14,18,59.9944954946,0,001,2018_Dec_07_1051,
0.02,"Shopping for clothes
with friends",0.03,"Going to the beach 
alone",,,,,0,48,48,40,,,,,,,,,,,2,2.9518507449,,,,,,,,,,,,,,,,,,,,,,,,,newer wtp,exc14,18,59.9944954946,0,001,2018_Dec_07_1051,
0.05,"Going camping 
with family",0.01,"Learning how to 
perform card tricks",,,,,0,49,49,29,,,,,,,,,,,2,2.43518450856,,,,,,,,,,,,,,,,,,,,,,,,,newer wtp,exc14,18,59.9944954946,0,001,2018_Dec_07_1051,
,,,,0.05,0.01,Posting Instagram stories,"Making cookies to 
give to a friend",,,,,0,0,0,8,,,,,,,,,2,0,2.25092363916,,,,,,,,,,,,,,,,,,,,,,newer wtp,exc14,18,59.9944954946,0,001,2018_Dec_07_1051,
,,,,0.05,0.02,"Sleeping over at 
a friend's house","Taking your friend 
to the spa",,,,,0,1,1,1,,,,,,,,,2,0,2.28489244916,,,,,,,,,,,,,,,,,,,,,,newer wtp,exc14,18,59.9944954946,0,001,2018_Dec_07_1051,
,,,,0.03,0.04,"Going to a music
festival with friends","Buying flowers for 
a significant other",,,,,0,2,2,5,,,,,,,,,1,0,2.9848112436,,,,,,,,,,,,,,,,,,,,,,newer wtp,exc14,18,59.9944954946,0,001,2018_Dec_07_1051,
,,,,0.01,0.05,"Getting drinks 
with co-workers","Playing icebreakers
with classmates",,,,,0,3,3,19,,,,,,,,,1,0,2.36816562619,,,,,,,,,,,,,,,,,,,,,,newer wtp,exc14,18,59.9944954946,0,001,2018_Dec_07_1051,
,,,,0.02,0.04,"Going to a bar 
with friends","Getting a slice of 
pizza with a friend",,,,,0,4,4,10,,,,,,,,,2,0,3.01814744808,,,,,,,,,,,,,,,,,,,,,,newer wtp,exc14,18,59.9944954946,0,001,2018_Dec_07_1051,
,,,,0.01,0.04,"Talking over the phone
with a friend","Talking over the phone
with a significant other",,,,,0,5,5,7,,,,,,,,,1,0,3.16864819918,,,,,,,,,,,,,,,,,,,,,,newer wtp,exc14,18,59.9944954946,0,001,2018_Dec_07_1051,
,,,,0.03,0.01,"Going to a karaoke
bar with friends","Going on a weekend
getaway with family",,,,,0,6,6,18,,,,,,,,,2,0,1.83458605222,,,,,,,,,,,,,,,,,,,,,,newer wtp,exc14,18,59.9944954946,0,001,2018_Dec_07_1051,
,,,,0.04,0.03,"Going to a flea market
with family","Playing volleyball
with friends",,,,,0,7,7,16,,,,,,,,,1,0,3.45162106026,,,,,,,,,,,,,,,,,,,,,,newer wtp,exc14,18,59.9944954946,0,001,2018_Dec_07_1051,
,,,,0.05,0.02,"Eating dinner at a 
restaurant with family","Eating dinner at a
restaurant with friends ",,,,,0,8,8,14,,,,,,,,,1,0,3.26803664863,,,,,,,,,,,,,,,,,,,,,,newer wtp,exc14,18,59.9944954946,0,001,2018_Dec_07_1051,
,,,,0.03,0.02,"Getting ice cream
with friends","Going sight-seeing
with family",,,,,0,9,9,24,,,,,,,,,2,0,3.10180690791,,,,,,,,,,,,,,,,,,,,,,newer wtp,exc14,18,59.9944954946,0,001,2018_Dec_07_1051,
,,,,0.01,0.01,"Going to a comedy show 
with a significant other","Watching friends'
Snapchat stories",,,,,0,10,10,23,,,,,,,,,1,0,2.68520837929,,,,,,,,,,,,,,,,,,,,,,newer wtp,exc14,18,59.9944954946,0,001,2018_Dec_07_1051,
,,,,0.02,0.05,"Going to an amusement 
park with a friend","Baking a cake for a 
family member’s birthday",,,,,0,11,11,2,,,,,,,,,2,0,3.117514438,,,,,,,,,,,,,,,,,,,,,,newer wtp,exc14,18,59.9944954946,0,001,2018_Dec_07_1051,
,,,,0.02,0.05,"Taking an art class 
with friends","Walking around Central 
Park with family",,,,,0,12,12,13,,,,,,,,,2,0,2.13458235096,,,,,,,,,,,,,,,,,,,,,,newer wtp,exc14,18,59.9944954946,0,001,2018_Dec_07_1051,
,,,,0.01,0.05,"Playing videogames 
with friends","Taking your friend 
on a cruise",,,,,0,13,13,6,,,,,,,,,2,0,2.78482324816,,,,,,,,,,,,,,,,,,,,,,newer wtp,exc14,18,59.9944954946,0,001,2018_Dec_07_1051,
,,,,0.01,0.02,"Learning to drive 
with a family member","Going dancing with
a significant other",,,,,0,14,14,21,,,,,,,,,1,0,1.71798040159,,,,,,,,,,,,,,,,,,,,,,newer wtp,exc14,18,59.9944954946,0,001,2018_Dec_07_1051,
,,,,0.01,0.03,"Getting likes on a 
Facebook status","Going on a first date 
to the movies",,,,,0,15,15,20,,,,,,,,,2,0,2.61796027888,,,,,,,,,,,,,,,,,,,,,,newer wtp,exc14,18,59.9944954946,0,001,2018_Dec_07_1051,
,,,,0.02,0.02,"Working on a group
project with classmates","Getting likes on an
Instagram picture",,,,,0,16,16,17,,,,,,,,,1,0,2.31767100282,,,,,,,,,,,,,,,,,,,,,,newer wtp,exc14,18,59.9944954946,0,001,2018_Dec_07_1051,
,,,,0.02,0.01,Going on a blind date,"Going to a coffee 
shop with friends",,,,,0,17,17,9,,,,,,,,,2,0,1.96826397069,,,,,,,,,,,,,,,,,,,,,,newer wtp,exc14,18,59.9944954946,0,001,2018_Dec_07_1051,
,,,,0.04,0.01,"Getting retweeted by 
a celebrity","Planning a surprise 
party for a family member",,,,,0,18,18,4,,,,,,,,,2,0,2.20134868752,,,,,,,,,,,,,,,,,,,,,,newer wtp,exc14,18,59.9944954946,0,001,2018_Dec_07_1051,
,,,,0.03,0.03,"Celebrating holidays 
with family","Talking to a friend 
over Skype",,,,,0,19,19,12,,,,,,,,,1,0,2.88507663272,,,,,,,,,,,,,,,,,,,,,,newer wtp,exc14,18,59.9944954946,0,001,2018_Dec_07_1051,
,,,,0.05,0.01,Taking classes with a friend,"Taking a family member
 on a shopping trip",,,,,0,20,20,0,,,,,,,,,2,0,1.95136867091,,,,,,,,,,,,,,,,,,,,,,newer wtp,exc14,18,59.9944954946,0,001,2018_Dec_07_1051,
,,,,0.02,0.03,"Getting verified on 
Instagram","Playing ping-pong
with friends",,,,,0,21,21,22,,,,,,,,,2,0,2.70147231687,,,,,,,,,,,,,,,,,,,,,,newer wtp,exc14,18,59.9944954946,0,001,2018_Dec_07_1051,
,,,,0.03,0.05,"Going to a parade 
with family","Making a friend’s 
favorite dinner",,,,,0,22,22,3,,,,,,,,,2,0,3.76854095981,,,,,,,,,,,,,,,,,,,,,,newer wtp,exc14,18,59.9944954946,0,001,2018_Dec_07_1051,
,,,,0.05,0.03,"Going to a street fair
with friends",Having a Tweet go viral,,,,,0,23,23,15,,,,,,,,,1,0,2.16793161817,,,,,,,,,,,,,,,,,,,,,,newer wtp,exc14,18,59.9944954946,0,001,2018_Dec_07_1051,
,,,,0.04,0.02,"Baking cookies for
a neighbor","Getting tagged in 
Instagram pictures",,,,,0,24,24,11,,,,,,,,,1,0,1.70119426865,,,,,,,,,,,,,,,,,,,,,,newer wtp,exc14,18,59.9944954946,0,001,2018_Dec_07_1051,
,,,,,,,,,,,,,,,,,,,,,,,,,,,space,9.90382029768,,,,,,,,,,,,,,,,,,,,newer wtp,exc14,18,59.9944954946,0,001,2018_Dec_07_1051,
,,,,,,,,,,,,,,,,0,0,0,0,,,,,,,,,,7,23.255,"[(None, 0.0), (1, 15.42), (7, 20.837), (7, 23.255)]",1,5.135,1,7.887,7,3.968,2,4.903,7,5.619,7,7.636,1,3.418,6,4.836,newer wtp,exc14,18,59.9944954946,0,001,2018_Dec_07_1051,
