selectBlock,alltrials.thisRepN,alltrials.thisTrialN,alltrials.thisN,alltrials.thisIndex,Reward.thisRepN,Reward.thisTrialN,Reward.thisN,Reward.thisIndex,Loss.thisRepN,Loss.thisTrialN,Loss.thisN,Loss.thisIndex,response1.keys,response1.rt,response2.keys,response2.rt,response3.keys,response3.rt,date,frameRate,expName,session,participant,
,,,,,,,,,,,,,space,5.60117881116,,,,,2018_Sep_28_1125,60.0291064975,Experiment1,001,WTP29,
1,0,0,0,13,0,0,0,0,,,,,,,2,1.18469287059,,,2018_Sep_28_1125,60.0291064975,Experiment1,001,WTP29,
1,0,0,0,13,,,,,,,,,,,,,,,2018_Sep_28_1125,60.0291064975,Experiment1,001,WTP29,
2,0,1,1,18,,,,,0,0,0,0,,,,,None,,2018_Sep_28_1125,60.0291064975,Experiment1,001,WTP29,
2,0,1,1,18,,,,,,,,,,,,,,,2018_Sep_28_1125,60.0291064975,Experiment1,001,WTP29,
1,0,2,2,2,0,0,0,0,,,,,,,2,0.500875353348,,,2018_Sep_28_1125,60.0291064975,Experiment1,001,WTP29,
1,0,2,2,2,,,,,,,,,,,,,,,2018_Sep_28_1125,60.0291064975,Experiment1,001,WTP29,
2,0,3,3,10,,,,,0,0,0,0,,,,,1,0.617231258424,2018_Sep_28_1125,60.0291064975,Experiment1,001,WTP29,
2,0,3,3,10,,,,,,,,,,,,,,,2018_Sep_28_1125,60.0291064975,Experiment1,001,WTP29,
1,0,4,4,7,0,0,0,0,,,,,,,1,1.05117481481,,,2018_Sep_28_1125,60.0291064975,Experiment1,001,WTP29,
1,0,4,4,7,,,,,,,,,,,,,,,2018_Sep_28_1125,60.0291064975,Experiment1,001,WTP29,
1,0,5,5,4,0,0,0,0,,,,,,,2,0.75030736113,,,2018_Sep_28_1125,60.0291064975,Experiment1,001,WTP29,
1,0,5,5,4,,,,,,,,,,,,,,,2018_Sep_28_1125,60.0291064975,Experiment1,001,WTP29,
1,0,6,6,24,0,0,0,0,,,,,,,2,0.867206921568,,,2018_Sep_28_1125,60.0291064975,Experiment1,001,WTP29,
1,0,6,6,24,,,,,,,,,,,,,,,2018_Sep_28_1125,60.0291064975,Experiment1,001,WTP29,
1,0,7,7,20,0,0,0,0,,,,,,,1,0.818025405519,,,2018_Sep_28_1125,60.0291064975,Experiment1,001,WTP29,
1,0,7,7,20,,,,,,,,,,,,,,,2018_Sep_28_1125,60.0291064975,Experiment1,001,WTP29,
1,0,8,8,23,0,0,0,0,,,,,,,2,0.750992217334,,,2018_Sep_28_1125,60.0291064975,Experiment1,001,WTP29,
1,0,8,8,23,,,,,,,,,,,,,,,2018_Sep_28_1125,60.0291064975,Experiment1,001,WTP29,
2,0,9,9,21,,,,,0,0,0,0,,,,,2,0.717814319301,2018_Sep_28_1125,60.0291064975,Experiment1,001,WTP29,
2,0,9,9,21,,,,,,,,,,,,,,,2018_Sep_28_1125,60.0291064975,Experiment1,001,WTP29,
1,0,10,10,12,0,0,0,0,,,,,,,2,0.367159802467,,,2018_Sep_28_1125,60.0291064975,Experiment1,001,WTP29,
1,0,10,10,12,,,,,,,,,,,,,,,2018_Sep_28_1125,60.0291064975,Experiment1,001,WTP29,
2,0,11,11,1,,,,,0,0,0,0,,,,,1,0.801001345739,2018_Sep_28_1125,60.0291064975,Experiment1,001,WTP29,
2,0,11,11,1,,,,,,,,,,,,,,,2018_Sep_28_1125,60.0291064975,Experiment1,001,WTP29,
1,0,12,12,6,0,0,0,0,,,,,,,1,0.934426718857,,,2018_Sep_28_1125,60.0291064975,Experiment1,001,WTP29,
1,0,12,12,6,,,,,,,,,,,,,,,2018_Sep_28_1125,60.0291064975,Experiment1,001,WTP29,
2,0,13,13,8,,,,,0,0,0,0,,,,,2,0.767655499279,2018_Sep_28_1125,60.0291064975,Experiment1,001,WTP29,
2,0,13,13,8,,,,,,,,,,,,,,,2018_Sep_28_1125,60.0291064975,Experiment1,001,WTP29,
2,0,14,14,9,,,,,0,0,0,0,,,,,2,0.684279375244,2018_Sep_28_1125,60.0291064975,Experiment1,001,WTP29,
2,0,14,14,9,,,,,,,,,,,,,,,2018_Sep_28_1125,60.0291064975,Experiment1,001,WTP29,
2,0,15,15,14,,,,,0,0,0,0,,,,,2,0.351053549675,2018_Sep_28_1125,60.0291064975,Experiment1,001,WTP29,
2,0,15,15,14,,,,,,,,,,,,,,,2018_Sep_28_1125,60.0291064975,Experiment1,001,WTP29,
2,0,16,16,11,,,,,0,0,0,0,,,,,1,0.534380439902,2018_Sep_28_1125,60.0291064975,Experiment1,001,WTP29,
2,0,16,16,11,,,,,,,,,,,,,,,2018_Sep_28_1125,60.0291064975,Experiment1,001,WTP29,
1,0,17,17,22,0,0,0,0,,,,,,,2,0.483758921968,,,2018_Sep_28_1125,60.0291064975,Experiment1,001,WTP29,
1,0,17,17,22,,,,,,,,,,,,,,,2018_Sep_28_1125,60.0291064975,Experiment1,001,WTP29,
1,0,18,18,16,0,0,0,0,,,,,,,2,0.417887377087,,,2018_Sep_28_1125,60.0291064975,Experiment1,001,WTP29,
1,0,18,18,16,,,,,,,,,,,,,,,2018_Sep_28_1125,60.0291064975,Experiment1,001,WTP29,
1,0,19,19,5,0,0,0,0,,,,,,,2,0.533607566031,,,2018_Sep_28_1125,60.0291064975,Experiment1,001,WTP29,
1,0,19,19,5,,,,,,,,,,,,,,,2018_Sep_28_1125,60.0291064975,Experiment1,001,WTP29,
1,0,20,20,19,0,0,0,0,,,,,,,1,0.501224001637,,,2018_Sep_28_1125,60.0291064975,Experiment1,001,WTP29,
1,0,20,20,19,,,,,,,,,,,,,,,2018_Sep_28_1125,60.0291064975,Experiment1,001,WTP29,
2,0,21,21,3,,,,,0,0,0,0,,,,,1,0.700893205591,2018_Sep_28_1125,60.0291064975,Experiment1,001,WTP29,
2,0,21,21,3,,,,,,,,,,,,,,,2018_Sep_28_1125,60.0291064975,Experiment1,001,WTP29,
1,0,22,22,0,0,0,0,0,,,,,,,1,0.40044842218,,,2018_Sep_28_1125,60.0291064975,Experiment1,001,WTP29,
1,0,22,22,0,,,,,,,,,,,,,,,2018_Sep_28_1125,60.0291064975,Experiment1,001,WTP29,
2,0,23,23,17,,,,,0,0,0,0,,,,,2,0.484205229441,2018_Sep_28_1125,60.0291064975,Experiment1,001,WTP29,
2,0,23,23,17,,,,,,,,,,,,,,,2018_Sep_28_1125,60.0291064975,Experiment1,001,WTP29,
2,0,24,24,15,,,,,0,0,0,0,,,,,2,0.284512699349,2018_Sep_28_1125,60.0291064975,Experiment1,001,WTP29,
2,0,24,24,15,,,,,,,,,,,,,,,2018_Sep_28_1125,60.0291064975,Experiment1,001,WTP29,
