selectBlock,alltrials.thisRepN,alltrials.thisTrialN,alltrials.thisN,alltrials.thisIndex,Reward.thisRepN,Reward.thisTrialN,Reward.thisN,Reward.thisIndex,Loss.thisRepN,Loss.thisTrialN,Loss.thisN,Loss.thisIndex,response1.keys,response1.rt,response3.keys,response3.rt,response2.keys,response2.rt,date,frameRate,expName,session,participant,
,,,,,,,,,,,,,space,4.70114419516,,,,,2018_Mar_02_1455,59.9345529096,Experiment1,001,wtp20,
2,0,0,0,8,,,,,0,0,0,0,,,2,1.36739959568,,,2018_Mar_02_1455,59.9345529096,Experiment1,001,wtp20,
2,0,0,0,8,,,,,,,,,,,,,,,2018_Mar_02_1455,59.9345529096,Experiment1,001,wtp20,
2,0,1,1,21,,,,,0,0,0,0,,,None,,,,2018_Mar_02_1455,59.9345529096,Experiment1,001,wtp20,
2,0,1,1,21,,,,,,,,,,,,,,,2018_Mar_02_1455,59.9345529096,Experiment1,001,wtp20,
1,0,2,2,0,0,0,0,0,,,,,,,,,None,,2018_Mar_02_1455,59.9345529096,Experiment1,001,wtp20,
1,0,2,2,0,,,,,,,,,,,,,,,2018_Mar_02_1455,59.9345529096,Experiment1,001,wtp20,
1,0,3,3,6,0,0,0,0,,,,,,,,,1,1.41765753634,2018_Mar_02_1455,59.9345529096,Experiment1,001,wtp20,
1,0,3,3,6,,,,,,,,,,,,,,,2018_Mar_02_1455,59.9345529096,Experiment1,001,wtp20,
1,0,4,4,2,0,0,0,0,,,,,,,,,2,0.783916637884,2018_Mar_02_1455,59.9345529096,Experiment1,001,wtp20,
1,0,4,4,2,,,,,,,,,,,,,,,2018_Mar_02_1455,59.9345529096,Experiment1,001,wtp20,
2,0,5,5,1,,,,,0,0,0,0,,,1,1.41785316519,,,2018_Mar_02_1455,59.9345529096,Experiment1,001,wtp20,
2,0,5,5,1,,,,,,,,,,,,,,,2018_Mar_02_1455,59.9345529096,Experiment1,001,wtp20,
2,0,6,6,3,,,,,0,0,0,0,,,2,1.66734271089,,,2018_Mar_02_1455,59.9345529096,Experiment1,001,wtp20,
2,0,6,6,3,,,,,,,,,,,,,,,2018_Mar_02_1455,59.9345529096,Experiment1,001,wtp20,
1,0,7,7,13,0,0,0,0,,,,,,,,,2,0.250414506067,2018_Mar_02_1455,59.9345529096,Experiment1,001,wtp20,
1,0,7,7,13,,,,,,,,,,,,,,,2018_Mar_02_1455,59.9345529096,Experiment1,001,wtp20,
1,0,8,8,5,0,0,0,0,,,,,,,,,2,1.38448959077,2018_Mar_02_1455,59.9345529096,Experiment1,001,wtp20,
1,0,8,8,5,,,,,,,,,,,,,,,2018_Mar_02_1455,59.9345529096,Experiment1,001,wtp20,
1,0,9,9,4,0,0,0,0,,,,,,,,,2,0.233665072941,2018_Mar_02_1455,59.9345529096,Experiment1,001,wtp20,
1,0,9,9,4,,,,,,,,,,,,,,,2018_Mar_02_1455,59.9345529096,Experiment1,001,wtp20,
1,0,10,10,24,0,0,0,0,,,,,,,,,None,,2018_Mar_02_1455,59.9345529096,Experiment1,001,wtp20,
1,0,10,10,24,,,,,,,,,,,,,,,2018_Mar_02_1455,59.9345529096,Experiment1,001,wtp20,
2,0,11,11,15,,,,,0,0,0,0,,,2,0.217895649956,,,2018_Mar_02_1455,59.9345529096,Experiment1,001,wtp20,
2,0,11,11,15,,,,,,,,,,,,,,,2018_Mar_02_1455,59.9345529096,Experiment1,001,wtp20,
2,0,12,12,18,,,,,0,0,0,0,,,2,0.450360513758,,,2018_Mar_02_1455,59.9345529096,Experiment1,001,wtp20,
2,0,12,12,18,,,,,,,,,,,,,,,2018_Mar_02_1455,59.9345529096,Experiment1,001,wtp20,
2,0,13,13,11,,,,,0,0,0,0,,,2,0.950702164322,,,2018_Mar_02_1455,59.9345529096,Experiment1,001,wtp20,
2,0,13,13,11,,,,,,,,,,,,,,,2018_Mar_02_1455,59.9345529096,Experiment1,001,wtp20,
1,0,14,14,22,0,0,0,0,,,,,,,,,1,0.301250624703,2018_Mar_02_1455,59.9345529096,Experiment1,001,wtp20,
1,0,14,14,22,,,,,,,,,,,,,,,2018_Mar_02_1455,59.9345529096,Experiment1,001,wtp20,
1,0,15,15,16,0,0,0,0,,,,,,,,,1,1.68467685324,2018_Mar_02_1455,59.9345529096,Experiment1,001,wtp20,
1,0,15,15,16,,,,,,,,,,,,,,,2018_Mar_02_1455,59.9345529096,Experiment1,001,wtp20,
1,0,16,16,23,0,0,0,0,,,,,,,,,1,0.283750711009,2018_Mar_02_1455,59.9345529096,Experiment1,001,wtp20,
1,0,16,16,23,,,,,,,,,,,,,,,2018_Mar_02_1455,59.9345529096,Experiment1,001,wtp20,
2,0,17,17,14,,,,,0,0,0,0,,,1,0.350911415531,,,2018_Mar_02_1455,59.9345529096,Experiment1,001,wtp20,
2,0,17,17,14,,,,,,,,,,,,,,,2018_Mar_02_1455,59.9345529096,Experiment1,001,wtp20,
2,0,18,18,10,,,,,0,0,0,0,,,2,0.601396833197,,,2018_Mar_02_1455,59.9345529096,Experiment1,001,wtp20,
2,0,18,18,10,,,,,,,,,,,,,,,2018_Mar_02_1455,59.9345529096,Experiment1,001,wtp20,
1,0,19,19,7,0,0,0,0,,,,,,,,,2,0.433767832583,2018_Mar_02_1455,59.9345529096,Experiment1,001,wtp20,
1,0,19,19,7,,,,,,,,,,,,,,,2018_Mar_02_1455,59.9345529096,Experiment1,001,wtp20,
2,0,20,20,17,,,,,0,0,0,0,,,2,0.767701218487,,,2018_Mar_02_1455,59.9345529096,Experiment1,001,wtp20,
2,0,20,20,17,,,,,,,,,,,,,,,2018_Mar_02_1455,59.9345529096,Experiment1,001,wtp20,
2,0,21,21,9,,,,,0,0,0,0,,,2,0.56725105457,,,2018_Mar_02_1455,59.9345529096,Experiment1,001,wtp20,
2,0,21,21,9,,,,,,,,,,,,,,,2018_Mar_02_1455,59.9345529096,Experiment1,001,wtp20,
1,0,22,22,20,0,0,0,0,,,,,,,,,1,0.919474644936,2018_Mar_02_1455,59.9345529096,Experiment1,001,wtp20,
1,0,22,22,20,,,,,,,,,,,,,,,2018_Mar_02_1455,59.9345529096,Experiment1,001,wtp20,
1,0,23,23,12,0,0,0,0,,,,,,,,,1,0.517479542177,2018_Mar_02_1455,59.9345529096,Experiment1,001,wtp20,
1,0,23,23,12,,,,,,,,,,,,,,,2018_Mar_02_1455,59.9345529096,Experiment1,001,wtp20,
1,0,24,24,19,0,0,0,0,,,,,,,,,1,1.81771252397,2018_Mar_02_1455,59.9345529096,Experiment1,001,wtp20,
1,0,24,24,19,,,,,,,,,,,,,,,2018_Mar_02_1455,59.9345529096,Experiment1,001,wtp20,
