selectBlock,alltrials.thisRepN,alltrials.thisTrialN,alltrials.thisN,alltrials.thisIndex,Reward.thisRepN,Reward.thisTrialN,Reward.thisN,Reward.thisIndex,Loss.thisRepN,Loss.thisTrialN,Loss.thisN,Loss.thisIndex,response1.keys,response1.rt,response3.keys,response3.rt,response2.keys,response2.rt,date,frameRate,expName,session,participant,
,,,,,,,,,,,,,space,11.1531474935,,,,,2018_Oct_29_1108,59.9904658152,Experiment1,001,wtp31,
2,0,0,0,11,,,,,0,0,0,0,,,2,0.384439206216,,,2018_Oct_29_1108,59.9904658152,Experiment1,001,wtp31,
2,0,0,0,11,,,,,,,,,,,,,,,2018_Oct_29_1108,59.9904658152,Experiment1,001,wtp31,
1,0,1,1,6,0,0,0,0,,,,,,,,,1,0.600944616366,2018_Oct_29_1108,59.9904658152,Experiment1,001,wtp31,
1,0,1,1,6,,,,,,,,,,,,,,,2018_Oct_29_1108,59.9904658152,Experiment1,001,wtp31,
1,0,2,2,12,0,0,0,0,,,,,,,,,2,0.53442056058,2018_Oct_29_1108,59.9904658152,Experiment1,001,wtp31,
1,0,2,2,12,,,,,,,,,,,,,,,2018_Oct_29_1108,59.9904658152,Experiment1,001,wtp31,
1,0,3,3,23,0,0,0,0,,,,,,,,,2,0.984212849289,2018_Oct_29_1108,59.9904658152,Experiment1,001,wtp31,
1,0,3,3,23,,,,,,,,,,,,,,,2018_Oct_29_1108,59.9904658152,Experiment1,001,wtp31,
1,0,4,4,22,0,0,0,0,,,,,,,,,1,0.684289949946,2018_Oct_29_1108,59.9904658152,Experiment1,001,wtp31,
1,0,4,4,22,,,,,,,,,,,,,,,2018_Oct_29_1108,59.9904658152,Experiment1,001,wtp31,
2,0,5,5,3,,,,,0,0,0,0,,,1,0.383813443128,,,2018_Oct_29_1108,59.9904658152,Experiment1,001,wtp31,
2,0,5,5,3,,,,,,,,,,,,,,,2018_Oct_29_1108,59.9904658152,Experiment1,001,wtp31,
1,0,6,6,20,0,0,0,0,,,,,,,,,1,1.4341510036,2018_Oct_29_1108,59.9904658152,Experiment1,001,wtp31,
1,0,6,6,20,,,,,,,,,,,,,,,2018_Oct_29_1108,59.9904658152,Experiment1,001,wtp31,
1,0,7,7,4,0,0,0,0,,,,,,,,,2,0.917140161619,2018_Oct_29_1108,59.9904658152,Experiment1,001,wtp31,
1,0,7,7,4,,,,,,,,,,,,,,,2018_Oct_29_1108,59.9904658152,Experiment1,001,wtp31,
1,0,8,8,16,0,0,0,0,,,,,,,,,2,0.501105505042,2018_Oct_29_1108,59.9904658152,Experiment1,001,wtp31,
1,0,8,8,16,,,,,,,,,,,,,,,2018_Oct_29_1108,59.9904658152,Experiment1,001,wtp31,
2,0,9,9,18,,,,,0,0,0,0,,,1,0.567047339398,,,2018_Oct_29_1108,59.9904658152,Experiment1,001,wtp31,
2,0,9,9,18,,,,,,,,,,,,,,,2018_Oct_29_1108,59.9904658152,Experiment1,001,wtp31,
1,0,10,10,2,0,0,0,0,,,,,,,,,1,0.366961063817,2018_Oct_29_1108,59.9904658152,Experiment1,001,wtp31,
1,0,10,10,2,,,,,,,,,,,,,,,2018_Oct_29_1108,59.9904658152,Experiment1,001,wtp31,
1,0,11,11,7,0,0,0,0,,,,,,,,,2,0.634626982268,2018_Oct_29_1108,59.9904658152,Experiment1,001,wtp31,
1,0,11,11,7,,,,,,,,,,,,,,,2018_Oct_29_1108,59.9904658152,Experiment1,001,wtp31,
1,0,12,12,0,0,0,0,0,,,,,,,,,1,0.80030964734,2018_Oct_29_1108,59.9904658152,Experiment1,001,wtp31,
1,0,12,12,0,,,,,,,,,,,,,,,2018_Oct_29_1108,59.9904658152,Experiment1,001,wtp31,
2,0,13,13,14,,,,,0,0,0,0,,,2,0.650806323159,,,2018_Oct_29_1108,59.9904658152,Experiment1,001,wtp31,
2,0,13,13,14,,,,,,,,,,,,,,,2018_Oct_29_1108,59.9904658152,Experiment1,001,wtp31,
2,0,14,14,15,,,,,0,0,0,0,,,2,0.900882755872,,,2018_Oct_29_1108,59.9904658152,Experiment1,001,wtp31,
2,0,14,14,15,,,,,,,,,,,,,,,2018_Oct_29_1108,59.9904658152,Experiment1,001,wtp31,
2,0,15,15,1,,,,,0,0,0,0,,,2,0.634470541496,,,2018_Oct_29_1108,59.9904658152,Experiment1,001,wtp31,
2,0,15,15,1,,,,,,,,,,,,,,,2018_Oct_29_1108,59.9904658152,Experiment1,001,wtp31,
2,0,16,16,9,,,,,0,0,0,0,,,None,,,,2018_Oct_29_1108,59.9904658152,Experiment1,001,wtp31,
2,0,16,16,9,,,,,,,,,,,,,,,2018_Oct_29_1108,59.9904658152,Experiment1,001,wtp31,
2,0,17,17,21,,,,,0,0,0,0,,,1,0.384428943042,,,2018_Oct_29_1108,59.9904658152,Experiment1,001,wtp31,
2,0,17,17,21,,,,,,,,,,,,,,,2018_Oct_29_1108,59.9904658152,Experiment1,001,wtp31,
2,0,18,18,17,,,,,0,0,0,0,,,1,0.600984426215,,,2018_Oct_29_1108,59.9904658152,Experiment1,001,wtp31,
2,0,18,18,17,,,,,,,,,,,,,,,2018_Oct_29_1108,59.9904658152,Experiment1,001,wtp31,
2,0,19,19,10,,,,,0,0,0,0,,,1,0.98437644355,,,2018_Oct_29_1108,59.9904658152,Experiment1,001,wtp31,
2,0,19,19,10,,,,,,,,,,,,,,,2018_Oct_29_1108,59.9904658152,Experiment1,001,wtp31,
2,0,20,20,8,,,,,0,0,0,0,,,1,0.550964412745,,,2018_Oct_29_1108,59.9904658152,Experiment1,001,wtp31,
2,0,20,20,8,,,,,,,,,,,,,,,2018_Oct_29_1108,59.9904658152,Experiment1,001,wtp31,
1,0,21,21,24,0,0,0,0,,,,,,,,,1,0.651108008809,2018_Oct_29_1108,59.9904658152,Experiment1,001,wtp31,
1,0,21,21,24,,,,,,,,,,,,,,,2018_Oct_29_1108,59.9904658152,Experiment1,001,wtp31,
1,0,22,22,19,0,0,0,0,,,,,,,,,2,0.517232284881,2018_Oct_29_1108,59.9904658152,Experiment1,001,wtp31,
1,0,22,22,19,,,,,,,,,,,,,,,2018_Oct_29_1108,59.9904658152,Experiment1,001,wtp31,
1,0,23,23,13,0,0,0,0,,,,,,,,,2,0.500717046671,2018_Oct_29_1108,59.9904658152,Experiment1,001,wtp31,
1,0,23,23,13,,,,,,,,,,,,,,,2018_Oct_29_1108,59.9904658152,Experiment1,001,wtp31,
1,0,24,24,5,0,0,0,0,,,,,,,,,2,0.784666496329,2018_Oct_29_1108,59.9904658152,Experiment1,001,wtp31,
1,0,24,24,5,,,,,,,,,,,,,,,2018_Oct_29_1108,59.9904658152,Experiment1,001,wtp31,
