leftmoney,Right,rightmoney,Left,leftmoney1,rightmoney1,Left1,Right1,Loop.thisRepN,Loop.thisTrialN,Loop.thisN,Loop.thisIndex,Loop2.thisRepN,Loop2.thisTrialN,Loop2.thisN,Loop2.thisIndex,questions.thisRepN,questions.thisTrialN,questions.thisN,questions.thisIndex,spacebar.keys,spacebar.rt,responses.keys,responses.rt,response1.keys,response1.corr,response1.rt,key_resp_2.keys,key_resp_2.rt,rating.response,rating.rt,rating.history,rating_2.response,rating_2.rt,rating_3.response,rating_3.rt,rating_4.response,rating_4.rt,rating_6.response,rating_6.rt,rating_7.response,rating_7.rt,rating_8.response,rating_8.rt,rating_9.response,rating_9.rt,rating_5.response,rating_5.rt,expName,participant,age,frameRate,sex,session,date,
,,,,,,,,,,,,,,,,,,,,space,2.88455723692,,,,,,,,,,,,,,,,,,,,,,,,,,,newer wtp,exc3,18,59.9251698451,1,001,2018_Nov_28_1240,
0.05,"Going camping 
with family",0.01,"Learning how to 
perform card tricks",,,,,0,0,0,29,,,,,,,,,,,2,3.73543273006,,,,,,,,,,,,,,,,,,,,,,,,,newer wtp,exc3,18,59.9251698451,1,001,2018_Nov_28_1240,
0.01,"Giving a friend a ride
to school",0.05,"Listening to music
by yourself",,,,,0,1,1,42,,,,,,,,,,,1,2.58602364454,,,,,,,,,,,,,,,,,,,,,,,,,newer wtp,exc3,18,59.9251698451,1,001,2018_Nov_28_1240,
0.05,"Planting flowers 
in a garden",0.02,"Taking a road trip 
with family",,,,,0,2,2,14,,,,,,,,,,,1,1.90155672655,,,,,,,,,,,,,,,,,,,,,,,,,newer wtp,exc3,18,59.9251698451,1,001,2018_Nov_28_1240,
0.05,"Going on Spring Break 
vacation with friends",0.01,"Going for a bicycle
ride alone",,,,,0,3,3,13,,,,,,,,,,,2,1.95105703268,,,,,,,,,,,,,,,,,,,,,,,,,newer wtp,exc3,18,59.9251698451,1,001,2018_Nov_28_1240,
0.02,"Going on a double 
date",0.04,Doing your laundry,,,,,0,4,4,33,,,,,,,,,,,2,1.7698254548,,,,,,,,,,,,,,,,,,,,,,,,,newer wtp,exc3,18,59.9251698451,1,001,2018_Nov_28_1240,
0.03,"Going on a 
dinner date",0.04,Getting a haircut,,,,,0,5,5,5,,,,,,,,,,,2,1.58447727468,,,,,,,,,,,,,,,,,,,,,,,,,newer wtp,exc3,18,59.9251698451,1,001,2018_Nov_28_1240,
0.03,"Cleaning up around 
the house",0.05,"Playing a tennis match
 with a friend",,,,,0,6,6,38,,,,,,,,,,,1,2.35161120072,,,,,,,,,,,,,,,,,,,,,,,,,newer wtp,exc3,18,59.9251698451,1,001,2018_Nov_28_1240,
0.04,"Getting breakfast with 
a significant other",0.02,Listening to a podcast,,,,,0,7,7,27,,,,,,,,,,,2,1.7010540003,,,,,,,,,,,,,,,,,,,,,,,,,newer wtp,exc3,18,59.9251698451,1,001,2018_Nov_28_1240,
0.02,"Having a romantic dinner 
with a significant other",0.02,"Painting your bedroom
a new color",,,,,0,8,8,25,,,,,,,,,,,2,1.63420742191,,,,,,,,,,,,,,,,,,,,,,,,,newer wtp,exc3,18,59.9251698451,1,001,2018_Nov_28_1240,
0.01,"Watching YouTube
videos",0.02,"Making breakfast 
for your family",,,,,0,9,9,41,,,,,,,,,,,1,2.11873890646,,,,,,,,,,,,,,,,,,,,,,,,,newer wtp,exc3,18,59.9251698451,1,001,2018_Nov_28_1240,
0.01,"Getting breakfast
by yourself",0.04,"Gaining Instagram
followers",,,,,0,10,10,44,,,,,,,,,,,1,2.78517594002,,,,,,,,,,,,,,,,,,,,,,,,,newer wtp,exc3,18,59.9251698451,1,001,2018_Nov_28_1240,
0.02,Reading at the library,0.05,"Watching the sunset 
with a significant other",,,,,0,11,11,36,,,,,,,,,,,1,1.43423684314,,,,,,,,,,,,,,,,,,,,,,,,,newer wtp,exc3,18,59.9251698451,1,001,2018_Nov_28_1240,
0.03,"Going to a sporting
event with friends",0.05,Putting gas in a car,,,,,0,12,12,3,,,,,,,,,,,2,1.18467389885,,,,,,,,,,,,,,,,,,,,,,,,,newer wtp,exc3,18,59.9251698451,1,001,2018_Nov_28_1240,
0.01,"Going to a friend’s 
birthday party",0.04,Reading a book,,,,,0,13,13,7,,,,,,,,,,,2,1.01760534756,,,,,,,,,,,,,,,,,,,,,,,,,newer wtp,exc3,18,59.9251698451,1,001,2018_Nov_28_1240,
0.02,"Going to the movies
with a significant other",0.05,"Driving to school
by yourself",,,,,0,14,14,46,,,,,,,,,,,2,1.88534441683,,,,,,,,,,,,,,,,,,,,,,,,,newer wtp,exc3,18,59.9251698451,1,001,2018_Nov_28_1240,
0.02,"Shopping for clothes
with friends",0.03,"Going to the beach 
alone",,,,,0,15,15,40,,,,,,,,,,,1,2.48452526424,,,,,,,,,,,,,,,,,,,,,,,,,newer wtp,exc3,18,59.9251698451,1,001,2018_Nov_28_1240,
0.03,Shopping online,0.01,"Catching up with friends 
from high school",,,,,0,16,16,18,,,,,,,,,,,2,2.05139408074,,,,,,,,,,,,,,,,,,,,,,,,,newer wtp,exc3,18,59.9251698451,1,001,2018_Nov_28_1240,
0.02,"Having a picnic 
with family",0.02,"Watching a new 
episode of a television 
show",,,,,0,17,17,17,,,,,,,,,,,2,2.50168119464,,,,,,,,,,,,,,,,,,,,,,,,,newer wtp,exc3,18,59.9251698451,1,001,2018_Nov_28_1240,
0.02,"Getting lunch with 
coworkers",0.01,"Going to a farmer's
market by yourself",,,,,0,18,18,43,,,,,,,,,,,2,2.78443385661,,,,,,,,,,,,,,,,,,,,,,,,,newer wtp,exc3,18,59.9251698451,1,001,2018_Nov_28_1240,
0.05,"Trying to solve a 
Rubik’s cube",0.03,"Going shopping with
a significant other",,,,,0,19,19,26,,,,,,,,,,,1,2.96832368523,,,,,,,,,,,,,,,,,,,,,,,,,newer wtp,exc3,18,59.9251698451,1,001,2018_Nov_28_1240,
0.01,Drawing a picture,0.03,"Getting likes on an 
Instagram picture",,,,,0,20,20,20,,,,,,,,,,,1,2.05200024974,,,,,,,,,,,,,,,,,,,,,,,,,newer wtp,exc3,18,59.9251698451,1,001,2018_Nov_28_1240,
0.03,"Going to a family 
member’s baby shower",0.02,Watching the news,,,,,0,21,21,31,,,,,,,,,,,2,1.46779231541,,,,,,,,,,,,,,,,,,,,,,,,,newer wtp,exc3,18,59.9251698451,1,001,2018_Nov_28_1240,
0.03,"Going to the movies 
by yourself",0.01,"Seeing a play with a 
significant other",,,,,0,22,22,34,,,,,,,,,,,1,1.83461217768,,,,,,,,,,,,,,,,,,,,,,,,,newer wtp,exc3,18,59.9251698451,1,001,2018_Nov_28_1240,
0.05,"Going for a walk 
in the park",0.01,Playing a team sport,,,,,0,23,23,8,,,,,,,,,,,1,1.7182139745,,,,,,,,,,,,,,,,,,,,,,,,,newer wtp,exc3,18,59.9251698451,1,001,2018_Nov_28_1240,
0.04,"Watching a football 
game from home",0.01,"Attending a family 
barbeque",,,,,0,24,24,4,,,,,,,,,,,2,1.90088679921,,,,,,,,,,,,,,,,,,,,,,,,,newer wtp,exc3,18,59.9251698451,1,001,2018_Nov_28_1240,
0.01,"Buying coffee on 
the way to work",0.05,"Getting retweets 
on a picture",,,,,0,25,25,6,,,,,,,,,,,2,2.88505828287,,,,,,,,,,,,,,,,,,,,,,,,,newer wtp,exc3,18,59.9251698451,1,001,2018_Nov_28_1240,
0.05,"Putting together 
a puzzle",0.01,"Going to the movies 
with a friend",,,,,0,26,26,0,,,,,,,,,,,1,2.00176221412,,,,,,,,,,,,,,,,,,,,,,,,,newer wtp,exc3,18,59.9251698451,1,001,2018_Nov_28_1240,
0.05,"Participating in 
a debate",0.03,"Going to a museum 
alone",,,,,0,27,27,15,,,,,,,,,,,2,2.601389369,,,,,,,,,,,,,,,,,,,,,,,,,newer wtp,exc3,18,59.9251698451,1,001,2018_Nov_28_1240,
0.03,"Teaching yourself a 
different language",0.03,"Joining a club 
at school",,,,,0,28,28,12,,,,,,,,,,,1,1.66834915802,,,,,,,,,,,,,,,,,,,,,,,,,newer wtp,exc3,18,59.9251698451,1,001,2018_Nov_28_1240,
0.01,"Going to a nightclub with 
a group of friends",0.05,Writing journal entries,,,,,0,29,29,37,,,,,,,,,,,2,1.11820644792,,,,,,,,,,,,,,,,,,,,,,,,,newer wtp,exc3,18,59.9251698451,1,001,2018_Nov_28_1240,
0.01,"Going to a carnival 
with friends",0.01,"Rearranging furniture 
in your house",,,,,0,30,30,23,,,,,,,,,,,2,1.66760272067,,,,,,,,,,,,,,,,,,,,,,,,,newer wtp,exc3,18,59.9251698451,1,001,2018_Nov_28_1240,
0.02,Exercising from home,0.03,"Attending a Superbowl 
party",,,,,0,31,31,22,,,,,,,,,,,1,1.55200413801,,,,,,,,,,,,,,,,,,,,,,,,,newer wtp,exc3,18,59.9251698451,1,001,2018_Nov_28_1240,
0.02,"Practicing an
 instrument",0.05,"Attending a family member’s 
wedding",,,,,0,32,32,2,,,,,,,,,,,1,2.01751515362,,,,,,,,,,,,,,,,,,,,,,,,,newer wtp,exc3,18,59.9251698451,1,001,2018_Nov_28_1240,
0.04,"Trying out a new 
recipe at home",0.03,"Spending a day at the 
beach with a friend",,,,,0,33,33,16,,,,,,,,,,,1,2.68546683248,,,,,,,,,,,,,,,,,,,,,,,,,newer wtp,exc3,18,59.9251698451,1,001,2018_Nov_28_1240,
0.02,Practicing photography,0.04,"Going to a concert 
with a friend",,,,,0,34,34,10,,,,,,,,,,,1,1.48417070694,,,,,,,,,,,,,,,,,,,,,,,,,newer wtp,exc3,18,59.9251698451,1,001,2018_Nov_28_1240,
0.04,"Going to a work outing
with colleagues",0.01,"Going on vacation 
by yourself",,,,,0,35,35,11,,,,,,,,,,,2,1.90115302801,,,,,,,,,,,,,,,,,,,,,,,,,newer wtp,exc3,18,59.9251698451,1,001,2018_Nov_28_1240,
0.01,"Having a movie marathon 
with a roommate",0.04,"Looking through old 
photo albums",,,,,0,36,36,35,,,,,,,,,,,1,1.93450198509,,,,,,,,,,,,,,,,,,,,,,,,,newer wtp,exc3,18,59.9251698451,1,001,2018_Nov_28_1240,
0.04,"Taking an online
class",0.03,"Gaining Twitter
followers ",,,,,0,37,37,49,,,,,,,,,,,2,2.43438893091,,,,,,,,,,,,,,,,,,,,,,,,,newer wtp,exc3,18,59.9251698451,1,001,2018_Nov_28_1240,
0.03,"Getting a slice of pizza 
by yourself",0.02,Joining a study group,,,,,0,38,38,24,,,,,,,,,,,None,,,,,,,,,,,,,,,,,,,,,,,,,,newer wtp,exc3,18,59.9251698451,1,001,2018_Nov_28_1240,
0.03,"Watching Netflix at home 
by yourself",0.03,"Meeting new people 
at a party",,,,,0,39,39,32,,,,,,,,,,,1,2.53493218124,,,,,,,,,,,,,,,,,,,,,,,,,newer wtp,exc3,18,59.9251698451,1,001,2018_Nov_28_1240,
0.01,"Playing cards with 
friends",0.02,Studying for a test alone,,,,,0,40,40,21,,,,,,,,,,,1,1.70161227416,,,,,,,,,,,,,,,,,,,,,,,,,newer wtp,exc3,18,59.9251698451,1,001,2018_Nov_28_1240,
0.05,Taking a nap,0.02,"Getting likes on a 
facebook post",,,,,0,41,41,28,,,,,,,,,,,2,1.45131066628,,,,,,,,,,,,,,,,,,,,,,,,,newer wtp,exc3,18,59.9251698451,1,001,2018_Nov_28_1240,
0.01,"Studying abroad 
with friends",0.05,Playing with a pet,,,,,0,42,42,45,,,,,,,,,,,1,1.70093394909,,,,,,,,,,,,,,,,,,,,,,,,,newer wtp,exc3,18,59.9251698451,1,001,2018_Nov_28_1240,
0.01,"Buying clothes 
for yourself",0.03,"Going to a party
with roommates",,,,,0,43,43,48,,,,,,,,,,,1,2.23506277706,,,,,,,,,,,,,,,,,,,,,,,,,newer wtp,exc3,18,59.9251698451,1,001,2018_Nov_28_1240,
0.04,"Snapchatting with
friends",0.05,"Playing a videogame 
at home",,,,,0,44,44,19,,,,,,,,,,,1,1.80102187209,,,,,,,,,,,,,,,,,,,,,,,,,newer wtp,exc3,18,59.9251698451,1,001,2018_Nov_28_1240,
0.05,"Taking a road trip 
by yourself",0.03,"Traveling abroad with 
a significant other",,,,,0,45,45,30,,,,,,,,,,,1,2.56782207917,,,,,,,,,,,,,,,,,,,,,,,,,newer wtp,exc3,18,59.9251698451,1,001,2018_Nov_28_1240,
0.02,"Adding new friends
on facebook",0.01,Running a marathon,,,,,0,46,46,9,,,,,,,,,,,1,3.2352540521,,,,,,,,,,,,,,,,,,,,,,,,,newer wtp,exc3,18,59.9251698451,1,001,2018_Nov_28_1240,
0.04,"Reading news 
articles",0.04,"Watching television
with family",,,,,0,47,47,47,,,,,,,,,,,1,2.30155884102,,,,,,,,,,,,,,,,,,,,,,,,,newer wtp,exc3,18,59.9251698451,1,001,2018_Nov_28_1240,
0.05,"Having dinner with 
family",0.02,"Going grocery shopping 
alone",,,,,0,48,48,1,,,,,,,,,,,2,2.23464135081,,,,,,,,,,,,,,,,,,,,,,,,,newer wtp,exc3,18,59.9251698451,1,001,2018_Nov_28_1240,
0.04,"Babysitting for a 
family member",0.01,"Going on a hike 
by yourself",,,,,0,49,49,39,,,,,,,,,,,2,1.7343777651,,,,,,,,,,,,,,,,,,,,,,,,,newer wtp,exc3,18,59.9251698451,1,001,2018_Nov_28_1240,
,,,,0.02,0.05,"Going to an amusement 
park with a friend","Baking a cake for a 
family member’s birthday",,,,,0,0,0,2,,,,,,,,,1,0,2.43473664578,,,,,,,,,,,,,,,,,,,,,,newer wtp,exc3,18,59.9251698451,1,001,2018_Nov_28_1240,
,,,,0.03,0.03,"Celebrating holidays 
with family","Talking to a friend 
over Skype",,,,,0,1,1,12,,,,,,,,,1,0,1.51766584069,,,,,,,,,,,,,,,,,,,,,,newer wtp,exc3,18,59.9251698451,1,001,2018_Nov_28_1240,
,,,,0.05,0.02,"Sleeping over at 
a friend's house","Taking your friend 
to the spa",,,,,0,2,2,1,,,,,,,,,1,0,2.75204655994,,,,,,,,,,,,,,,,,,,,,,newer wtp,exc3,18,59.9251698451,1,001,2018_Nov_28_1240,
,,,,0.02,0.04,"Going to a bar 
with friends","Getting a slice of 
pizza with a friend",,,,,0,3,3,10,,,,,,,,,1,0,1.65122152958,,,,,,,,,,,,,,,,,,,,,,newer wtp,exc3,18,59.9251698451,1,001,2018_Nov_28_1240,
,,,,0.03,0.05,"Going to a parade 
with family","Making a friend’s 
favorite dinner",,,,,0,4,4,3,,,,,,,,,1,0,1.78393716551,,,,,,,,,,,,,,,,,,,,,,newer wtp,exc3,18,59.9251698451,1,001,2018_Nov_28_1240,
,,,,0.02,0.05,"Taking an art class 
with friends","Walking around Central 
Park with family",,,,,0,5,5,13,,,,,,,,,1,0,1.73457214981,,,,,,,,,,,,,,,,,,,,,,newer wtp,exc3,18,59.9251698451,1,001,2018_Nov_28_1240,
,,,,0.02,0.02,"Working on a group
project with classmates","Getting likes on an
Instagram picture",,,,,0,6,6,17,,,,,,,,,1,0,2.36766458116,,,,,,,,,,,,,,,,,,,,,,newer wtp,exc3,18,59.9251698451,1,001,2018_Nov_28_1240,
,,,,0.01,0.05,"Getting drinks 
with co-workers","Playing icebreakers
with classmates",,,,,0,7,7,19,,,,,,,,,1,0,1.8009329224,,,,,,,,,,,,,,,,,,,,,,newer wtp,exc3,18,59.9251698451,1,001,2018_Nov_28_1240,
,,,,0.03,0.01,"Going to a karaoke
bar with friends","Going on a weekend
getaway with family",,,,,0,8,8,18,,,,,,,,,2,0,2.48489599489,,,,,,,,,,,,,,,,,,,,,,newer wtp,exc3,18,59.9251698451,1,001,2018_Nov_28_1240,
,,,,0.02,0.01,Going on a blind date,"Going to a coffee 
shop with friends",,,,,0,9,9,9,,,,,,,,,2,0,2.0175832659,,,,,,,,,,,,,,,,,,,,,,newer wtp,exc3,18,59.9251698451,1,001,2018_Nov_28_1240,
,,,,0.01,0.01,"Going to a comedy show 
with a significant other","Watching friends'
Snapchat stories",,,,,0,10,10,23,,,,,,,,,1,0,1.51766863931,,,,,,,,,,,,,,,,,,,,,,newer wtp,exc3,18,59.9251698451,1,001,2018_Nov_28_1240,
,,,,0.01,0.05,"Playing videogames 
with friends","Taking your friend 
on a cruise",,,,,0,11,11,6,,,,,,,,,1,0,1.75162077975,,,,,,,,,,,,,,,,,,,,,,newer wtp,exc3,18,59.9251698451,1,001,2018_Nov_28_1240,
,,,,0.01,0.03,"Getting likes on a 
Facebook status","Going on a first date 
to the movies",,,,,0,12,12,20,,,,,,,,,2,0,1.58479793184,,,,,,,,,,,,,,,,,,,,,,newer wtp,exc3,18,59.9251698451,1,001,2018_Nov_28_1240,
,,,,0.05,0.02,"Eating dinner at a 
restaurant with family","Eating dinner at a
restaurant with friends ",,,,,0,13,13,14,,,,,,,,,2,0,2.26802047621,,,,,,,,,,,,,,,,,,,,,,newer wtp,exc3,18,59.9251698451,1,001,2018_Nov_28_1240,
,,,,0.04,0.03,"Going to a flea market
with family","Playing volleyball
with friends",,,,,0,14,14,16,,,,,,,,,1,0,3.06787199713,,,,,,,,,,,,,,,,,,,,,,newer wtp,exc3,18,59.9251698451,1,001,2018_Nov_28_1240,
,,,,0.04,0.01,"Getting retweeted by 
a celebrity","Planning a surprise 
party for a family member",,,,,0,15,15,4,,,,,,,,,2,0,1.93495264556,,,,,,,,,,,,,,,,,,,,,,newer wtp,exc3,18,59.9251698451,1,001,2018_Nov_28_1240,
,,,,0.03,0.02,"Getting ice cream
with friends","Going sight-seeing
with family",,,,,0,16,16,24,,,,,,,,,2,0,3.68474932015,,,,,,,,,,,,,,,,,,,,,,newer wtp,exc3,18,59.9251698451,1,001,2018_Nov_28_1240,
,,,,0.05,0.01,Posting Instagram stories,"Making cookies to 
give to a friend",,,,,0,17,17,8,,,,,,,,,2,0,1.21789253969,,,,,,,,,,,,,,,,,,,,,,newer wtp,exc3,18,59.9251698451,1,001,2018_Nov_28_1240,
,,,,0.04,0.02,"Baking cookies for
a neighbor","Getting tagged in 
Instagram pictures",,,,,0,18,18,11,,,,,,,,,1,0,1.88426363748,,,,,,,,,,,,,,,,,,,,,,newer wtp,exc3,18,59.9251698451,1,001,2018_Nov_28_1240,
,,,,0.05,0.01,Taking classes with a friend,"Taking a family member
 on a shopping trip",,,,,0,19,19,0,,,,,,,,,2,0,2.20234331582,,,,,,,,,,,,,,,,,,,,,,newer wtp,exc3,18,59.9251698451,1,001,2018_Nov_28_1240,
,,,,0.01,0.04,"Talking over the phone
with a friend","Talking over the phone
with a significant other",,,,,0,20,20,7,,,,,,,,,2,0,2.16783675924,,,,,,,,,,,,,,,,,,,,,,newer wtp,exc3,18,59.9251698451,1,001,2018_Nov_28_1240,
,,,,0.03,0.04,"Going to a music
festival with friends","Buying flowers for 
a significant other",,,,,0,21,21,5,,,,,,,,,2,0,2.35120314825,,,,,,,,,,,,,,,,,,,,,,newer wtp,exc3,18,59.9251698451,1,001,2018_Nov_28_1240,
,,,,0.05,0.03,"Going to a street fair
with friends",Having a Tweet go viral,,,,,0,22,22,15,,,,,,,,,1,0,1.75092130527,,,,,,,,,,,,,,,,,,,,,,newer wtp,exc3,18,59.9251698451,1,001,2018_Nov_28_1240,
,,,,0.02,0.03,"Getting verified on 
Instagram","Playing ping-pong
with friends",,,,,0,23,23,22,,,,,,,,,2,0,1.33423818182,,,,,,,,,,,,,,,,,,,,,,newer wtp,exc3,18,59.9251698451,1,001,2018_Nov_28_1240,
,,,,0.01,0.02,"Learning to drive 
with a family member","Going dancing with
a significant other",,,,,0,24,24,21,,,,,,,,,2,0,1.56895790808,,,,,,,,,,,,,,,,,,,,,,newer wtp,exc3,18,59.9251698451,1,001,2018_Nov_28_1240,
,,,,,,,,,,,,,,,,,,,,,,,,,,,space,11.5371379042,,,,,,,,,,,,,,,,,,,,newer wtp,exc3,18,59.9251698451,1,001,2018_Nov_28_1240,
,,,,,,,,,,,,,,,,0,0,0,0,,,,,,,,,,5,7.0,"[(None, 0.0), (5, 6.165), (5, 7.0)]",6,6.987,5,3.185,6,3.986,6,2.984,7,4.703,4,3.384,6,3.403,7,1.901,newer wtp,exc3,18,59.9251698451,1,001,2018_Nov_28_1240,
